创建为新数据集,样品 1566 用户 Administrator 日期 星期日, 三月 12 2017
cm-1,%T
10000.00,0.92
9998.00,0.92
9996.00,0.92
9994.00,0.92
9992.00,0.92
9990.00,0.91
9988.00,0.91
9986.00,0.91
9984.00,0.91
9982.00,0.90
9980.00,0.90
9978.00,0.90
9976.00,0.90
9974.00,0.90
9972.00,0.90
9970.00,0.90
9968.00,0.90
9966.00,0.89
9964.00,0.89
9962.00,0.89
9960.00,0.89
9958.00,0.89
9956.00,0.89
9954.00,0.89
9952.00,0.89
9950.00,0.89
9948.00,0.89
9946.00,0.89
9944.00,0.90
9942.00,0.90
9940.00,0.90
9938.00,0.91
9936.00,0.91
9934.00,0.91
9932.00,0.91
9930.00,0.91
9928.00,0.91
9926.00,0.91
9924.00,0.91
9922.00,0.91
9920.00,0.91
9918.00,0.92
9916.00,0.92
9914.00,0.92
9912.00,0.93
9910.00,0.93
9908.00,0.93
9906.00,0.93
9904.00,0.93
9902.00,0.93
9900.00,0.92
9898.00,0.92
9896.00,0.91
9894.00,0.90
9892.00,0.89
9890.00,0.88
9888.00,0.88
9886.00,0.87
9884.00,0.87
9882.00,0.87
9880.00,0.87
9878.00,0.88
9876.00,0.89
9874.00,0.89
9872.00,0.90
9870.00,0.90
9868.00,0.90
9866.00,0.91
9864.00,0.91
9862.00,0.91
9860.00,0.91
9858.00,0.91
9856.00,0.91
9854.00,0.92
9852.00,0.92
9850.00,0.92
9848.00,0.92
9846.00,0.92
9844.00,0.92
9842.00,0.92
9840.00,0.92
9838.00,0.91
9836.00,0.91
9834.00,0.91
9832.00,0.91
9830.00,0.90
9828.00,0.90
9826.00,0.91
9824.00,0.91
9822.00,0.91
9820.00,0.91
9818.00,0.92
9816.00,0.92
9814.00,0.92
9812.00,0.92
9810.00,0.92
9808.00,0.92
9806.00,0.92
9804.00,0.92
9802.00,0.91
9800.00,0.90
9798.00,0.90
9796.00,0.89
9794.00,0.89
9792.00,0.89
9790.00,0.89
9788.00,0.89
9786.00,0.89
9784.00,0.90
9782.00,0.90
9780.00,0.91
9778.00,0.92
9776.00,0.92
9774.00,0.92
9772.00,0.92
9770.00,0.92
9768.00,0.92
9766.00,0.92
9764.00,0.92
9762.00,0.92
9760.00,0.92
9758.00,0.92
9756.00,0.92
9754.00,0.93
9752.00,0.93
9750.00,0.93
9748.00,0.92
9746.00,0.92
9744.00,0.92
9742.00,0.91
9740.00,0.91
9738.00,0.90
9736.00,0.90
9734.00,0.90
9732.00,0.90
9730.00,0.90
9728.00,0.91
9726.00,0.91
9724.00,0.92
9722.00,0.92
9720.00,0.92
9718.00,0.92
9716.00,0.92
9714.00,0.91
9712.00,0.91
9710.00,0.91
9708.00,0.91
9706.00,0.91
9704.00,0.92
9702.00,0.92
9700.00,0.92
9698.00,0.92
9696.00,0.93
9694.00,0.93
9692.00,0.93
9690.00,0.92
9688.00,0.92
9686.00,0.92
9684.00,0.92
9682.00,0.91
9680.00,0.91
9678.00,0.91
9676.00,0.91
9674.00,0.90
9672.00,0.90
9670.00,0.89
9668.00,0.89
9666.00,0.89
9664.00,0.89
9662.00,0.89
9660.00,0.89
9658.00,0.89
9656.00,0.89
9654.00,0.89
9652.00,0.89
9650.00,0.89
9648.00,0.90
9646.00,0.90
9644.00,0.90
9642.00,0.91
9640.00,0.91
9638.00,0.91
9636.00,0.91
9634.00,0.91
9632.00,0.90
9630.00,0.90
9628.00,0.90
9626.00,0.89
9624.00,0.89
9622.00,0.89
9620.00,0.88
9618.00,0.88
9616.00,0.88
9614.00,0.88
9612.00,0.89
9610.00,0.89
9608.00,0.89
9606.00,0.90
9604.00,0.90
9602.00,0.90
9600.00,0.90
9598.00,0.91
9596.00,0.91
9594.00,0.91
9592.00,0.91
9590.00,0.91
9588.00,0.91
9586.00,0.91
9584.00,0.91
9582.00,0.92
9580.00,0.91
9578.00,0.91
9576.00,0.91
9574.00,0.91
9572.00,0.90
9570.00,0.90
9568.00,0.90
9566.00,0.89
9564.00,0.89
9562.00,0.89
9560.00,0.89
9558.00,0.89
9556.00,0.89
9554.00,0.89
9552.00,0.90
9550.00,0.90
9548.00,0.91
9546.00,0.91
9544.00,0.91
9542.00,0.91
9540.00,0.91
9538.00,0.91
9536.00,0.91
9534.00,0.91
9532.00,0.91
9530.00,0.91
9528.00,0.91
9526.00,0.91
9524.00,0.90
9522.00,0.90
9520.00,0.90
9518.00,0.90
9516.00,0.90
9514.00,0.89
9512.00,0.90
9510.00,0.90
9508.00,0.90
9506.00,0.90
9504.00,0.91
9502.00,0.91
9500.00,0.91
9498.00,0.92
9496.00,0.92
9494.00,0.92
9492.00,0.92
9490.00,0.92
9488.00,0.92
9486.00,0.91
9484.00,0.91
9482.00,0.90
9480.00,0.90
9478.00,0.89
9476.00,0.89
9474.00,0.88
9472.00,0.89
9470.00,0.89
9468.00,0.89
9466.00,0.90
9464.00,0.91
9462.00,0.91
9460.00,0.92
9458.00,0.92
9456.00,0.92
9454.00,0.92
9452.00,0.92
9450.00,0.91
9448.00,0.91
9446.00,0.91
9444.00,0.91
9442.00,0.91
9440.00,0.91
9438.00,0.91
9436.00,0.91
9434.00,0.91
9432.00,0.91
9430.00,0.91
9428.00,0.91
9426.00,0.91
9424.00,0.91
9422.00,0.91
9420.00,0.91
9418.00,0.91
9416.00,0.91
9414.00,0.91
9412.00,0.91
9410.00,0.91
9408.00,0.91
9406.00,0.90
9404.00,0.90
9402.00,0.90
9400.00,0.90
9398.00,0.90
9396.00,0.91
9394.00,0.91
9392.00,0.91
9390.00,0.91
9388.00,0.91
9386.00,0.91
9384.00,0.91
9382.00,0.91
9380.00,0.90
9378.00,0.90
9376.00,0.90
9374.00,0.90
9372.00,0.91
9370.00,0.91
9368.00,0.91
9366.00,0.92
9364.00,0.92
9362.00,0.92
9360.00,0.92
9358.00,0.92
9356.00,0.92
9354.00,0.92
9352.00,0.91
9350.00,0.91
9348.00,0.90
9346.00,0.90
9344.00,0.90
9342.00,0.90
9340.00,0.90
9338.00,0.90
9336.00,0.90
9334.00,0.90
9332.00,0.90
9330.00,0.90
9328.00,0.91
9326.00,0.91
9324.00,0.91
9322.00,0.90
9320.00,0.90
9318.00,0.90
9316.00,0.90
9314.00,0.90
9312.00,0.90
9310.00,0.91
9308.00,0.91
9306.00,0.91
9304.00,0.91
9302.00,0.91
9300.00,0.91
9298.00,0.91
9296.00,0.91
9294.00,0.90
9292.00,0.90
9290.00,0.90
9288.00,0.90
9286.00,0.90
9284.00,0.90
9282.00,0.91
9280.00,0.92
9278.00,0.92
9276.00,0.93
9274.00,0.93
9272.00,0.93
9270.00,0.93
9268.00,0.92
9266.00,0.92
9264.00,0.92
9262.00,0.92
9260.00,0.92
9258.00,0.91
9256.00,0.91
9254.00,0.91
9252.00,0.92
9250.00,0.92
9248.00,0.92
9246.00,0.91
9244.00,0.91
9242.00,0.91
9240.00,0.91
9238.00,0.90
9236.00,0.90
9234.00,0.90
9232.00,0.90
9230.00,0.90
9228.00,0.90
9226.00,0.90
9224.00,0.90
9222.00,0.90
9220.00,0.90
9218.00,0.90
9216.00,0.90
9214.00,0.90
9212.00,0.90
9210.00,0.90
9208.00,0.90
9206.00,0.90
9204.00,0.90
9202.00,0.90
9200.00,0.90
9198.00,0.90
9196.00,0.91
9194.00,0.91
9192.00,0.91
9190.00,0.91
9188.00,0.91
9186.00,0.91
9184.00,0.91
9182.00,0.91
9180.00,0.91
9178.00,0.91
9176.00,0.91
9174.00,0.91
9172.00,0.91
9170.00,0.91
9168.00,0.91
9166.00,0.91
9164.00,0.91
9162.00,0.91
9160.00,0.91
9158.00,0.91
9156.00,0.90
9154.00,0.90
9152.00,0.90
9150.00,0.90
9148.00,0.89
9146.00,0.90
9144.00,0.90
9142.00,0.90
9140.00,0.91
9138.00,0.91
9136.00,0.92
9134.00,0.92
9132.00,0.92
9130.00,0.92
9128.00,0.92
9126.00,0.92
9124.00,0.92
9122.00,0.91
9120.00,0.91
9118.00,0.90
9116.00,0.90
9114.00,0.89
9112.00,0.89
9110.00,0.89
9108.00,0.89
9106.00,0.90
9104.00,0.90
9102.00,0.91
9100.00,0.91
9098.00,0.91
9096.00,0.91
9094.00,0.91
9092.00,0.91
9090.00,0.91
9088.00,0.91
9086.00,0.91
9084.00,0.91
9082.00,0.90
9080.00,0.90
9078.00,0.90
9076.00,0.90
9074.00,0.90
9072.00,0.90
9070.00,0.91
9068.00,0.91
9066.00,0.91
9064.00,0.91
9062.00,0.91
9060.00,0.91
9058.00,0.91
9056.00,0.91
9054.00,0.91
9052.00,0.91
9050.00,0.91
9048.00,0.91
9046.00,0.92
9044.00,0.92
9042.00,0.91
9040.00,0.91
9038.00,0.91
9036.00,0.91
9034.00,0.90
9032.00,0.90
9030.00,0.90
9028.00,0.90
9026.00,0.90
9024.00,0.89
9022.00,0.89
9020.00,0.89
9018.00,0.89
9016.00,0.89
9014.00,0.89
9012.00,0.89
9010.00,0.89
9008.00,0.90
9006.00,0.90
9004.00,0.90
9002.00,0.90
9000.00,0.90
8998.00,0.90
8996.00,0.90
8994.00,0.90
8992.00,0.90
8990.00,0.90
8988.00,0.90
8986.00,0.90
8984.00,0.90
8982.00,0.89
8980.00,0.89
8978.00,0.89
8976.00,0.89
8974.00,0.89
8972.00,0.89
8970.00,0.90
8968.00,0.90
8966.00,0.90
8964.00,0.91
8962.00,0.91
8960.00,0.91
8958.00,0.91
8956.00,0.91
8954.00,0.91
8952.00,0.91
8950.00,0.91
8948.00,0.91
8946.00,0.91
8944.00,0.91
8942.00,0.92
8940.00,0.92
8938.00,0.92
8936.00,0.92
8934.00,0.92
8932.00,0.92
8930.00,0.92
8928.00,0.92
8926.00,0.92
8924.00,0.92
8922.00,0.92
8920.00,0.92
8918.00,0.92
8916.00,0.92
8914.00,0.92
8912.00,0.92
8910.00,0.91
8908.00,0.91
8906.00,0.91
8904.00,0.91
8902.00,0.91
8900.00,0.91
8898.00,0.91
8896.00,0.91
8894.00,0.91
8892.00,0.92
8890.00,0.92
8888.00,0.92
8886.00,0.92
8884.00,0.92
8882.00,0.92
8880.00,0.92
8878.00,0.92
8876.00,0.92
8874.00,0.92
8872.00,0.92
8870.00,0.91
8868.00,0.91
8866.00,0.91
8864.00,0.91
8862.00,0.91
8860.00,0.91
8858.00,0.91
8856.00,0.91
8854.00,0.91
8852.00,0.91
8850.00,0.91
8848.00,0.91
8846.00,0.91
8844.00,0.91
8842.00,0.91
8840.00,0.91
8838.00,0.91
8836.00,0.90
8834.00,0.90
8832.00,0.90
8830.00,0.90
8828.00,0.90
8826.00,0.90
8824.00,0.90
8822.00,0.91
8820.00,0.91
8818.00,0.91
8816.00,0.92
8814.00,0.92
8812.00,0.92
8810.00,0.92
8808.00,0.92
8806.00,0.92
8804.00,0.92
8802.00,0.91
8800.00,0.91
8798.00,0.91
8796.00,0.91
8794.00,0.91
8792.00,0.91
8790.00,0.91
8788.00,0.90
8786.00,0.90
8784.00,0.90
8782.00,0.90
8780.00,0.90
8778.00,0.90
8776.00,0.90
8774.00,0.90
8772.00,0.90
8770.00,0.90
8768.00,0.89
8766.00,0.89
8764.00,0.89
8762.00,0.89
8760.00,0.89
8758.00,0.90
8756.00,0.90
8754.00,0.90
8752.00,0.91
8750.00,0.91
8748.00,0.91
8746.00,0.91
8744.00,0.91
8742.00,0.91
8740.00,0.90
8738.00,0.90
8736.00,0.90
8734.00,0.90
8732.00,0.89
8730.00,0.90
8728.00,0.90
8726.00,0.90
8724.00,0.90
8722.00,0.90
8720.00,0.90
8718.00,0.90
8716.00,0.90
8714.00,0.90
8712.00,0.90
8710.00,0.90
8708.00,0.90
8706.00,0.90
8704.00,0.90
8702.00,0.90
8700.00,0.90
8698.00,0.90
8696.00,0.90
8694.00,0.90
8692.00,0.89
8690.00,0.89
8688.00,0.89
8686.00,0.89
8684.00,0.89
8682.00,0.90
8680.00,0.90
8678.00,0.91
8676.00,0.91
8674.00,0.91
8672.00,0.91
8670.00,0.91
8668.00,0.91
8666.00,0.90
8664.00,0.90
8662.00,0.90
8660.00,0.90
8658.00,0.90
8656.00,0.90
8654.00,0.90
8652.00,0.90
8650.00,0.90
8648.00,0.90
8646.00,0.90
8644.00,0.90
8642.00,0.90
8640.00,0.90
8638.00,0.90
8636.00,0.90
8634.00,0.90
8632.00,0.90
8630.00,0.90
8628.00,0.90
8626.00,0.90
8624.00,0.90
8622.00,0.90
8620.00,0.90
8618.00,0.89
8616.00,0.89
8614.00,0.89
8612.00,0.89
8610.00,0.89
8608.00,0.89
8606.00,0.89
8604.00,0.88
8602.00,0.88
8600.00,0.88
8598.00,0.88
8596.00,0.88
8594.00,0.87
8592.00,0.87
8590.00,0.87
8588.00,0.87
8586.00,0.88
8584.00,0.88
8582.00,0.88
8580.00,0.88
8578.00,0.88
8576.00,0.88
8574.00,0.88
8572.00,0.88
8570.00,0.89
8568.00,0.89
8566.00,0.89
8564.00,0.90
8562.00,0.90
8560.00,0.90
8558.00,0.90
8556.00,0.90
8554.00,0.90
8552.00,0.90
8550.00,0.90
8548.00,0.90
8546.00,0.89
8544.00,0.89
8542.00,0.89
8540.00,0.89
8538.00,0.89
8536.00,0.89
8534.00,0.89
8532.00,0.89
8530.00,0.89
8528.00,0.90
8526.00,0.90
8524.00,0.90
8522.00,0.90
8520.00,0.90
8518.00,0.90
8516.00,0.90
8514.00,0.90
8512.00,0.90
8510.00,0.90
8508.00,0.90
8506.00,0.90
8504.00,0.90
8502.00,0.90
8500.00,0.90
8498.00,0.90
8496.00,0.90
8494.00,0.90
8492.00,0.90
8490.00,0.90
8488.00,0.90
8486.00,0.90
8484.00,0.90
8482.00,0.90
8480.00,0.90
8478.00,0.90
8476.00,0.90
8474.00,0.90
8472.00,0.91
8470.00,0.91
8468.00,0.91
8466.00,0.91
8464.00,0.91
8462.00,0.90
8460.00,0.90
8458.00,0.89
8456.00,0.89
8454.00,0.89
8452.00,0.89
8450.00,0.89
8448.00,0.89
8446.00,0.89
8444.00,0.89
8442.00,0.89
8440.00,0.89
8438.00,0.89
8436.00,0.88
8434.00,0.88
8432.00,0.88
8430.00,0.88
8428.00,0.87
8426.00,0.87
8424.00,0.87
8422.00,0.87
8420.00,0.87
8418.00,0.87
8416.00,0.87
8414.00,0.88
8412.00,0.88
8410.00,0.88
8408.00,0.89
8406.00,0.89
8404.00,0.89
8402.00,0.90
8400.00,0.90
8398.00,0.90
8396.00,0.90
8394.00,0.90
8392.00,0.90
8390.00,0.90
8388.00,0.90
8386.00,0.90
8384.00,0.90
8382.00,0.90
8380.00,0.90
8378.00,0.90
8376.00,0.90
8374.00,0.90
8372.00,0.90
8370.00,0.90
8368.00,0.90
8366.00,0.91
8364.00,0.90
8362.00,0.90
8360.00,0.90
8358.00,0.90
8356.00,0.90
8354.00,0.90
8352.00,0.90
8350.00,0.90
8348.00,0.90
8346.00,0.90
8344.00,0.90
8342.00,0.90
8340.00,0.90
8338.00,0.90
8336.00,0.90
8334.00,0.89
8332.00,0.89
8330.00,0.89
8328.00,0.89
8326.00,0.89
8324.00,0.89
8322.00,0.88
8320.00,0.88
8318.00,0.88
8316.00,0.88
8314.00,0.88
8312.00,0.89
8310.00,0.89
8308.00,0.89
8306.00,0.89
8304.00,0.89
8302.00,0.90
8300.00,0.90
8298.00,0.90
8296.00,0.90
8294.00,0.90
8292.00,0.90
8290.00,0.90
8288.00,0.90
8286.00,0.90
8284.00,0.89
8282.00,0.89
8280.00,0.89
8278.00,0.89
8276.00,0.89
8274.00,0.89
8272.00,0.89
8270.00,0.90
8268.00,0.90
8266.00,0.90
8264.00,0.90
8262.00,0.90
8260.00,0.90
8258.00,0.90
8256.00,0.90
8254.00,0.90
8252.00,0.90
8250.00,0.89
8248.00,0.89
8246.00,0.89
8244.00,0.89
8242.00,0.89
8240.00,0.89
8238.00,0.90
8236.00,0.90
8234.00,0.90
8232.00,0.90
8230.00,0.91
8228.00,0.91
8226.00,0.91
8224.00,0.91
8222.00,0.90
8220.00,0.90
8218.00,0.90
8216.00,0.90
8214.00,0.90
8212.00,0.90
8210.00,0.90
8208.00,0.90
8206.00,0.90
8204.00,0.90
8202.00,0.90
8200.00,0.91
8198.00,0.91
8196.00,0.90
8194.00,0.90
8192.00,0.90
8190.00,0.90
8188.00,0.90
8186.00,0.90
8184.00,0.90
8182.00,0.90
8180.00,0.90
8178.00,0.90
8176.00,0.90
8174.00,0.90
8172.00,0.90
8170.00,0.90
8168.00,0.90
8166.00,0.90
8164.00,0.90
8162.00,0.90
8160.00,0.90
8158.00,0.90
8156.00,0.90
8154.00,0.90
8152.00,0.90
8150.00,0.90
8148.00,0.90
8146.00,0.90
8144.00,0.90
8142.00,0.90
8140.00,0.90
8138.00,0.90
8136.00,0.90
8134.00,0.91
8132.00,0.91
8130.00,0.91
8128.00,0.91
8126.00,0.91
8124.00,0.91
8122.00,0.91
8120.00,0.91
8118.00,0.91
8116.00,0.91
8114.00,0.92
8112.00,0.92
8110.00,0.92
8108.00,0.92
8106.00,0.92
8104.00,0.92
8102.00,0.92
8100.00,0.92
8098.00,0.92
8096.00,0.91
8094.00,0.91
8092.00,0.91
8090.00,0.91
8088.00,0.91
8086.00,0.91
8084.00,0.91
8082.00,0.91
8080.00,0.91
8078.00,0.91
8076.00,0.91
8074.00,0.91
8072.00,0.91
8070.00,0.91
8068.00,0.90
8066.00,0.90
8064.00,0.90
8062.00,0.90
8060.00,0.90
8058.00,0.90
8056.00,0.90
8054.00,0.90
8052.00,0.90
8050.00,0.90
8048.00,0.90
8046.00,0.90
8044.00,0.90
8042.00,0.90
8040.00,0.90
8038.00,0.90
8036.00,0.90
8034.00,0.90
8032.00,0.90
8030.00,0.90
8028.00,0.90
8026.00,0.90
8024.00,0.90
8022.00,0.90
8020.00,0.90
8018.00,0.90
8016.00,0.90
8014.00,0.90
8012.00,0.90
8010.00,0.90
8008.00,0.90
8006.00,0.91
8004.00,0.91
8002.00,0.91
8000.00,0.91
7998.00,0.91
7996.00,0.91
7994.00,0.92
7992.00,0.92
7990.00,0.92
7988.00,0.92
7986.00,0.92
7984.00,0.91
7982.00,0.91
7980.00,0.91
7978.00,0.91
7976.00,0.91
7974.00,0.91
7972.00,0.90
7970.00,0.91
7968.00,0.91
7966.00,0.91
7964.00,0.91
7962.00,0.91
7960.00,0.91
7958.00,0.92
7956.00,0.92
7954.00,0.92
7952.00,0.91
7950.00,0.91
7948.00,0.91
7946.00,0.91
7944.00,0.91
7942.00,0.91
7940.00,0.91
7938.00,0.91
7936.00,0.91
7934.00,0.91
7932.00,0.91
7930.00,0.91
7928.00,0.91
7926.00,0.91
7924.00,0.91
7922.00,0.91
7920.00,0.90
7918.00,0.90
7916.00,0.90
7914.00,0.90
7912.00,0.90
7910.00,0.90
7908.00,0.90
7906.00,0.90
7904.00,0.90
7902.00,0.90
7900.00,0.91
7898.00,0.91
7896.00,0.91
7894.00,0.91
7892.00,0.91
7890.00,0.91
7888.00,0.91
7886.00,0.91
7884.00,0.91
7882.00,0.91
7880.00,0.90
7878.00,0.90
7876.00,0.90
7874.00,0.90
7872.00,0.89
7870.00,0.89
7868.00,0.89
7866.00,0.89
7864.00,0.90
7862.00,0.90
7860.00,0.90
7858.00,0.91
7856.00,0.91
7854.00,0.91
7852.00,0.91
7850.00,0.92
7848.00,0.92
7846.00,0.92
7844.00,0.92
7842.00,0.91
7840.00,0.91
7838.00,0.91
7836.00,0.91
7834.00,0.91
7832.00,0.91
7830.00,0.91
7828.00,0.91
7826.00,0.91
7824.00,0.91
7822.00,0.91
7820.00,0.91
7818.00,0.91
7816.00,0.91
7814.00,0.91
7812.00,0.91
7810.00,0.91
7808.00,0.91
7806.00,0.91
7804.00,0.91
7802.00,0.91
7800.00,0.91
7798.00,0.92
7796.00,0.92
7794.00,0.92
7792.00,0.92
7790.00,0.92
7788.00,0.92
7786.00,0.92
7784.00,0.92
7782.00,0.92
7780.00,0.92
7778.00,0.92
7776.00,0.92
7774.00,0.92
7772.00,0.92
7770.00,0.91
7768.00,0.91
7766.00,0.91
7764.00,0.91
7762.00,0.91
7760.00,0.91
7758.00,0.90
7756.00,0.91
7754.00,0.91
7752.00,0.91
7750.00,0.91
7748.00,0.91
7746.00,0.91
7744.00,0.91
7742.00,0.91
7740.00,0.91
7738.00,0.91
7736.00,0.91
7734.00,0.91
7732.00,0.91
7730.00,0.91
7728.00,0.91
7726.00,0.91
7724.00,0.91
7722.00,0.91
7720.00,0.91
7718.00,0.91
7716.00,0.91
7714.00,0.91
7712.00,0.91
7710.00,0.91
7708.00,0.91
7706.00,0.91
7704.00,0.91
7702.00,0.91
7700.00,0.91
7698.00,0.91
7696.00,0.91
7694.00,0.91
7692.00,0.91
7690.00,0.91
7688.00,0.91
7686.00,0.91
7684.00,0.91
7682.00,0.91
7680.00,0.91
7678.00,0.91
7676.00,0.91
7674.00,0.91
7672.00,0.91
7670.00,0.91
7668.00,0.90
7666.00,0.90
7664.00,0.91
7662.00,0.91
7660.00,0.91
7658.00,0.91
7656.00,0.91
7654.00,0.91
7652.00,0.91
7650.00,0.91
7648.00,0.91
7646.00,0.91
7644.00,0.91
7642.00,0.91
7640.00,0.91
7638.00,0.91
7636.00,0.91
7634.00,0.91
7632.00,0.91
7630.00,0.91
7628.00,0.91
7626.00,0.91
7624.00,0.91
7622.00,0.91
7620.00,0.91
7618.00,0.91
7616.00,0.91
7614.00,0.91
7612.00,0.91
7610.00,0.91
7608.00,0.91
7606.00,0.91
7604.00,0.91
7602.00,0.91
7600.00,0.91
7598.00,0.91
7596.00,0.91
7594.00,0.91
7592.00,0.91
7590.00,0.91
7588.00,0.91
7586.00,0.91
7584.00,0.91
7582.00,0.91
7580.00,0.91
7578.00,0.91
7576.00,0.91
7574.00,0.91
7572.00,0.91
7570.00,0.91
7568.00,0.91
7566.00,0.91
7564.00,0.91
7562.00,0.91
7560.00,0.91
7558.00,0.91
7556.00,0.91
7554.00,0.91
7552.00,0.91
7550.00,0.91
7548.00,0.91
7546.00,0.91
7544.00,0.91
7542.00,0.91
7540.00,0.91
7538.00,0.91
7536.00,0.91
7534.00,0.91
7532.00,0.91
7530.00,0.91
7528.00,0.91
7526.00,0.91
7524.00,0.91
7522.00,0.91
7520.00,0.92
7518.00,0.92
7516.00,0.92
7514.00,0.92
7512.00,0.92
7510.00,0.92
7508.00,0.92
7506.00,0.92
7504.00,0.92
7502.00,0.92
7500.00,0.91
7498.00,0.91
7496.00,0.91
7494.00,0.90
7492.00,0.90
7490.00,0.90
7488.00,0.90
7486.00,0.90
7484.00,0.90
7482.00,0.90
7480.00,0.90
7478.00,0.90
7476.00,0.90
7474.00,0.90
7472.00,0.90
7470.00,0.90
7468.00,0.90
7466.00,0.90
7464.00,0.90
7462.00,0.90
7460.00,0.90
7458.00,0.90
7456.00,0.90
7454.00,0.90
7452.00,0.90
7450.00,0.90
7448.00,0.90
7446.00,0.90
7444.00,0.90
7442.00,0.90
7440.00,0.90
7438.00,0.90
7436.00,0.90
7434.00,0.90
7432.00,0.90
7430.00,0.90
7428.00,0.90
7426.00,0.90
7424.00,0.91
7422.00,0.91
7420.00,0.90
7418.00,0.90
7416.00,0.90
7414.00,0.90
7412.00,0.90
7410.00,0.90
7408.00,0.90
7406.00,0.90
7404.00,0.90
7402.00,0.90
7400.00,0.90
7398.00,0.90
7396.00,0.90
7394.00,0.90
7392.00,0.90
7390.00,0.90
7388.00,0.90
7386.00,0.90
7384.00,0.90
7382.00,0.90
7380.00,0.90
7378.00,0.90
7376.00,0.90
7374.00,0.90
7372.00,0.90
7370.00,0.90
7368.00,0.90
7366.00,0.90
7364.00,0.90
7362.00,0.90
7360.00,0.90
7358.00,0.89
7356.00,0.89
7354.00,0.89
7352.00,0.89
7350.00,0.89
7348.00,0.89
7346.00,0.89
7344.00,0.89
7342.00,0.89
7340.00,0.89
7338.00,0.89
7336.00,0.89
7334.00,0.89
7332.00,0.89
7330.00,0.90
7328.00,0.90
7326.00,0.90
7324.00,0.90
7322.00,0.90
7320.00,0.90
7318.00,0.89
7316.00,0.89
7314.00,0.89
7312.00,0.89
7310.00,0.89
7308.00,0.89
7306.00,0.89
7304.00,0.89
7302.00,0.88
7300.00,0.88
7298.00,0.88
7296.00,0.88
7294.00,0.88
7292.00,0.88
7290.00,0.88
7288.00,0.88
7286.00,0.88
7284.00,0.88
7282.00,0.88
7280.00,0.88
7278.00,0.88
7276.00,0.88
7274.00,0.88
7272.00,0.88
7270.00,0.88
7268.00,0.88
7266.00,0.88
7264.00,0.89
7262.00,0.89
7260.00,0.89
7258.00,0.89
7256.00,0.89
7254.00,0.89
7252.00,0.89
7250.00,0.89
7248.00,0.88
7246.00,0.88
7244.00,0.88
7242.00,0.88
7240.00,0.88
7238.00,0.88
7236.00,0.88
7234.00,0.88
7232.00,0.88
7230.00,0.88
7228.00,0.88
7226.00,0.88
7224.00,0.87
7222.00,0.87
7220.00,0.87
7218.00,0.87
7216.00,0.87
7214.00,0.87
7212.00,0.87
7210.00,0.87
7208.00,0.87
7206.00,0.87
7204.00,0.87
7202.00,0.87
7200.00,0.87
7198.00,0.87
7196.00,0.87
7194.00,0.87
7192.00,0.87
7190.00,0.87
7188.00,0.87
7186.00,0.87
7184.00,0.87
7182.00,0.87
7180.00,0.86
7178.00,0.86
7176.00,0.86
7174.00,0.86
7172.00,0.86
7170.00,0.86
7168.00,0.86
7166.00,0.85
7164.00,0.85
7162.00,0.85
7160.00,0.85
7158.00,0.85
7156.00,0.85
7154.00,0.84
7152.00,0.84
7150.00,0.84
7148.00,0.84
7146.00,0.84
7144.00,0.84
7142.00,0.84
7140.00,0.84
7138.00,0.84
7136.00,0.84
7134.00,0.84
7132.00,0.84
7130.00,0.84
7128.00,0.84
7126.00,0.84
7124.00,0.84
7122.00,0.84
7120.00,0.84
7118.00,0.84
7116.00,0.84
7114.00,0.84
7112.00,0.84
7110.00,0.83
7108.00,0.83
7106.00,0.83
7104.00,0.83
7102.00,0.83
7100.00,0.83
7098.00,0.83
7096.00,0.83
7094.00,0.83
7092.00,0.83
7090.00,0.83
7088.00,0.83
7086.00,0.83
7084.00,0.83
7082.00,0.83
7080.00,0.83
7078.00,0.82
7076.00,0.82
7074.00,0.82
7072.00,0.82
7070.00,0.82
7068.00,0.82
7066.00,0.82
7064.00,0.82
7062.00,0.82
7060.00,0.82
7058.00,0.82
7056.00,0.82
7054.00,0.82
7052.00,0.82
7050.00,0.82
7048.00,0.82
7046.00,0.82
7044.00,0.82
7042.00,0.82
7040.00,0.82
7038.00,0.82
7036.00,0.82
7034.00,0.82
7032.00,0.82
7030.00,0.82
7028.00,0.82
7026.00,0.81
7024.00,0.82
7022.00,0.82
7020.00,0.82
7018.00,0.82
7016.00,0.82
7014.00,0.82
7012.00,0.82
7010.00,0.82
7008.00,0.82
7006.00,0.82
7004.00,0.82
7002.00,0.82
7000.00,0.81
6998.00,0.81
6996.00,0.81
6994.00,0.81
6992.00,0.81
6990.00,0.81
6988.00,0.81
6986.00,0.81
6984.00,0.81
6982.00,0.81
6980.00,0.81
6978.00,0.81
6976.00,0.81
6974.00,0.81
6972.00,0.81
6970.00,0.81
6968.00,0.81
6966.00,0.81
6964.00,0.81
6962.00,0.81
6960.00,0.81
6958.00,0.81
6956.00,0.81
6954.00,0.81
6952.00,0.81
6950.00,0.81
6948.00,0.81
6946.00,0.81
6944.00,0.81
6942.00,0.81
6940.00,0.81
6938.00,0.81
6936.00,0.81
6934.00,0.81
6932.00,0.81
6930.00,0.81
6928.00,0.81
6926.00,0.81
6924.00,0.81
6922.00,0.81
6920.00,0.81
6918.00,0.81
6916.00,0.81
6914.00,0.81
6912.00,0.81
6910.00,0.81
6908.00,0.81
6906.00,0.81
6904.00,0.81
6902.00,0.81
6900.00,0.81
6898.00,0.81
6896.00,0.81
6894.00,0.81
6892.00,0.81
6890.00,0.81
6888.00,0.81
6886.00,0.81
6884.00,0.81
6882.00,0.81
6880.00,0.80
6878.00,0.80
6876.00,0.80
6874.00,0.80
6872.00,0.80
6870.00,0.80
6868.00,0.80
6866.00,0.80
6864.00,0.80
6862.00,0.80
6860.00,0.80
6858.00,0.80
6856.00,0.80
6854.00,0.80
6852.00,0.80
6850.00,0.80
6848.00,0.80
6846.00,0.81
6844.00,0.81
6842.00,0.81
6840.00,0.81
6838.00,0.81
6836.00,0.81
6834.00,0.81
6832.00,0.81
6830.00,0.81
6828.00,0.81
6826.00,0.81
6824.00,0.81
6822.00,0.81
6820.00,0.81
6818.00,0.81
6816.00,0.81
6814.00,0.81
6812.00,0.81
6810.00,0.81
6808.00,0.81
6806.00,0.81
6804.00,0.81
6802.00,0.81
6800.00,0.81
6798.00,0.81
6796.00,0.81
6794.00,0.81
6792.00,0.81
6790.00,0.81
6788.00,0.81
6786.00,0.81
6784.00,0.81
6782.00,0.81
6780.00,0.81
6778.00,0.81
6776.00,0.81
6774.00,0.81
6772.00,0.81
6770.00,0.82
6768.00,0.82
6766.00,0.82
6764.00,0.82
6762.00,0.82
6760.00,0.82
6758.00,0.82
6756.00,0.82
6754.00,0.82
6752.00,0.82
6750.00,0.82
6748.00,0.81
6746.00,0.81
6744.00,0.81
6742.00,0.81
6740.00,0.81
6738.00,0.81
6736.00,0.81
6734.00,0.81
6732.00,0.81
6730.00,0.81
6728.00,0.81
6726.00,0.81
6724.00,0.81
6722.00,0.82
6720.00,0.82
6718.00,0.82
6716.00,0.82
6714.00,0.82
6712.00,0.82
6710.00,0.82
6708.00,0.82
6706.00,0.82
6704.00,0.82
6702.00,0.82
6700.00,0.82
6698.00,0.82
6696.00,0.82
6694.00,0.82
6692.00,0.82
6690.00,0.82
6688.00,0.82
6686.00,0.82
6684.00,0.82
6682.00,0.82
6680.00,0.82
6678.00,0.82
6676.00,0.82
6674.00,0.82
6672.00,0.82
6670.00,0.82
6668.00,0.82
6666.00,0.82
6664.00,0.82
6662.00,0.83
6660.00,0.83
6658.00,0.83
6656.00,0.83
6654.00,0.83
6652.00,0.83
6650.00,0.83
6648.00,0.83
6646.00,0.83
6644.00,0.83
6642.00,0.83
6640.00,0.83
6638.00,0.83
6636.00,0.83
6634.00,0.83
6632.00,0.83
6630.00,0.83
6628.00,0.83
6626.00,0.83
6624.00,0.83
6622.00,0.83
6620.00,0.83
6618.00,0.83
6616.00,0.83
6614.00,0.83
6612.00,0.83
6610.00,0.83
6608.00,0.83
6606.00,0.83
6604.00,0.83
6602.00,0.83
6600.00,0.84
6598.00,0.84
6596.00,0.84
6594.00,0.84
6592.00,0.84
6590.00,0.84
6588.00,0.84
6586.00,0.84
6584.00,0.84
6582.00,0.84
6580.00,0.84
6578.00,0.84
6576.00,0.84
6574.00,0.84
6572.00,0.84
6570.00,0.84
6568.00,0.84
6566.00,0.84
6564.00,0.84
6562.00,0.84
6560.00,0.84
6558.00,0.84
6556.00,0.84
6554.00,0.84
6552.00,0.85
6550.00,0.85
6548.00,0.85
6546.00,0.85
6544.00,0.85
6542.00,0.85
6540.00,0.85
6538.00,0.85
6536.00,0.85
6534.00,0.84
6532.00,0.84
6530.00,0.84
6528.00,0.84
6526.00,0.84
6524.00,0.84
6522.00,0.85
6520.00,0.85
6518.00,0.85
6516.00,0.85
6514.00,0.85
6512.00,0.85
6510.00,0.85
6508.00,0.85
6506.00,0.85
6504.00,0.85
6502.00,0.85
6500.00,0.85
6498.00,0.85
6496.00,0.85
6494.00,0.85
6492.00,0.85
6490.00,0.86
6488.00,0.86
6486.00,0.86
6484.00,0.86
6482.00,0.86
6480.00,0.86
6478.00,0.86
6476.00,0.86
6474.00,0.86
6472.00,0.85
6470.00,0.85
6468.00,0.85
6466.00,0.85
6464.00,0.85
6462.00,0.85
6460.00,0.85
6458.00,0.85
6456.00,0.85
6454.00,0.85
6452.00,0.85
6450.00,0.85
6448.00,0.85
6446.00,0.85
6444.00,0.85
6442.00,0.85
6440.00,0.85
6438.00,0.85
6436.00,0.85
6434.00,0.85
6432.00,0.85
6430.00,0.85
6428.00,0.85
6426.00,0.86
6424.00,0.86
6422.00,0.86
6420.00,0.86
6418.00,0.86
6416.00,0.86
6414.00,0.86
6412.00,0.85
6410.00,0.85
6408.00,0.85
6406.00,0.85
6404.00,0.85
6402.00,0.85
6400.00,0.85
6398.00,0.85
6396.00,0.85
6394.00,0.85
6392.00,0.85
6390.00,0.85
6388.00,0.85
6386.00,0.85
6384.00,0.85
6382.00,0.86
6380.00,0.86
6378.00,0.86
6376.00,0.86
6374.00,0.86
6372.00,0.86
6370.00,0.86
6368.00,0.86
6366.00,0.86
6364.00,0.86
6362.00,0.86
6360.00,0.86
6358.00,0.86
6356.00,0.86
6354.00,0.86
6352.00,0.86
6350.00,0.86
6348.00,0.86
6346.00,0.86
6344.00,0.86
6342.00,0.86
6340.00,0.86
6338.00,0.86
6336.00,0.86
6334.00,0.86
6332.00,0.87
6330.00,0.87
6328.00,0.87
6326.00,0.87
6324.00,0.87
6322.00,0.87
6320.00,0.87
6318.00,0.87
6316.00,0.87
6314.00,0.87
6312.00,0.87
6310.00,0.87
6308.00,0.87
6306.00,0.87
6304.00,0.87
6302.00,0.87
6300.00,0.87
6298.00,0.87
6296.00,0.87
6294.00,0.87
6292.00,0.87
6290.00,0.87
6288.00,0.87
6286.00,0.87
6284.00,0.87
6282.00,0.87
6280.00,0.87
6278.00,0.87
6276.00,0.87
6274.00,0.87
6272.00,0.87
6270.00,0.87
6268.00,0.87
6266.00,0.87
6264.00,0.88
6262.00,0.88
6260.00,0.87
6258.00,0.87
6256.00,0.87
6254.00,0.87
6252.00,0.87
6250.00,0.87
6248.00,0.87
6246.00,0.87
6244.00,0.87
6242.00,0.87
6240.00,0.87
6238.00,0.87
6236.00,0.87
6234.00,0.87
6232.00,0.87
6230.00,0.87
6228.00,0.87
6226.00,0.87
6224.00,0.87
6222.00,0.88
6220.00,0.88
6218.00,0.88
6216.00,0.88
6214.00,0.88
6212.00,0.88
6210.00,0.88
6208.00,0.88
6206.00,0.88
6204.00,0.88
6202.00,0.88
6200.00,0.88
6198.00,0.88
6196.00,0.88
6194.00,0.88
6192.00,0.88
6190.00,0.89
6188.00,0.89
6186.00,0.89
6184.00,0.89
6182.00,0.89
6180.00,0.89
6178.00,0.88
6176.00,0.88
6174.00,0.88
6172.00,0.88
6170.00,0.88
6168.00,0.88
6166.00,0.88
6164.00,0.89
6162.00,0.89
6160.00,0.89
6158.00,0.89
6156.00,0.89
6154.00,0.89
6152.00,0.89
6150.00,0.89
6148.00,0.89
6146.00,0.89
6144.00,0.89
6142.00,0.89
6140.00,0.89
6138.00,0.89
6136.00,0.89
6134.00,0.89
6132.00,0.89
6130.00,0.89
6128.00,0.89
6126.00,0.89
6124.00,0.89
6122.00,0.89
6120.00,0.89
6118.00,0.89
6116.00,0.89
6114.00,0.89
6112.00,0.89
6110.00,0.89
6108.00,0.89
6106.00,0.89
6104.00,0.89
6102.00,0.89
6100.00,0.89
6098.00,0.89
6096.00,0.89
6094.00,0.89
6092.00,0.89
6090.00,0.90
6088.00,0.90
6086.00,0.90
6084.00,0.90
6082.00,0.90
6080.00,0.90
6078.00,0.90
6076.00,0.90
6074.00,0.90
6072.00,0.90
6070.00,0.90
6068.00,0.90
6066.00,0.90
6064.00,0.90
6062.00,0.90
6060.00,0.90
6058.00,0.90
6056.00,0.90
6054.00,0.90
6052.00,0.90
6050.00,0.90
6048.00,0.90
6046.00,0.90
6044.00,0.90
6042.00,0.90
6040.00,0.90
6038.00,0.90
6036.00,0.90
6034.00,0.90
6032.00,0.90
6030.00,0.90
6028.00,0.90
6026.00,0.91
6024.00,0.91
6022.00,0.91
6020.00,0.90
6018.00,0.90
6016.00,0.90
6014.00,0.90
6012.00,0.90
6010.00,0.90
6008.00,0.90
6006.00,0.90
6004.00,0.90
6002.00,0.90
6000.00,0.90
5998.00,0.90
5996.00,0.90
5994.00,0.90
5992.00,0.90
5990.00,0.90
5988.00,0.90
5986.00,0.90
5984.00,0.90
5982.00,0.90
5980.00,0.90
5978.00,0.90
5976.00,0.90
5974.00,0.90
5972.00,0.90
5970.00,0.90
5968.00,0.89
5966.00,0.89
5964.00,0.89
5962.00,0.89
5960.00,0.89
5958.00,0.89
5956.00,0.89
5954.00,0.89
5952.00,0.89
5950.00,0.89
5948.00,0.88
5946.00,0.88
5944.00,0.88
5942.00,0.88
5940.00,0.88
5938.00,0.88
5936.00,0.88
5934.00,0.88
5932.00,0.88
5930.00,0.88
5928.00,0.88
5926.00,0.88
5924.00,0.88
5922.00,0.87
5920.00,0.87
5918.00,0.87
5916.00,0.87
5914.00,0.87
5912.00,0.87
5910.00,0.87
5908.00,0.87
5906.00,0.87
5904.00,0.87
5902.00,0.87
5900.00,0.87
5898.00,0.87
5896.00,0.87
5894.00,0.87
5892.00,0.87
5890.00,0.88
5888.00,0.88
5886.00,0.88
5884.00,0.88
5882.00,0.88
5880.00,0.88
5878.00,0.88
5876.00,0.88
5874.00,0.88
5872.00,0.88
5870.00,0.88
5868.00,0.88
5866.00,0.88
5864.00,0.88
5862.00,0.88
5860.00,0.88
5858.00,0.88
5856.00,0.88
5854.00,0.88
5852.00,0.88
5850.00,0.88
5848.00,0.89
5846.00,0.89
5844.00,0.89
5842.00,0.89
5840.00,0.89
5838.00,0.89
5836.00,0.89
5834.00,0.89
5832.00,0.89
5830.00,0.89
5828.00,0.89
5826.00,0.89
5824.00,0.89
5822.00,0.89
5820.00,0.89
5818.00,0.89
5816.00,0.89
5814.00,0.89
5812.00,0.89
5810.00,0.89
5808.00,0.89
5806.00,0.89
5804.00,0.88
5802.00,0.88
5800.00,0.88
5798.00,0.88
5796.00,0.88
5794.00,0.88
5792.00,0.88
5790.00,0.88
5788.00,0.88
5786.00,0.88
5784.00,0.88
5782.00,0.88
5780.00,0.88
5778.00,0.88
5776.00,0.88
5774.00,0.88
5772.00,0.88
5770.00,0.88
5768.00,0.88
5766.00,0.88
5764.00,0.88
5762.00,0.88
5760.00,0.88
5758.00,0.88
5756.00,0.88
5754.00,0.88
5752.00,0.89
5750.00,0.89
5748.00,0.89
5746.00,0.89
5744.00,0.89
5742.00,0.89
5740.00,0.89
5738.00,0.89
5736.00,0.89
5734.00,0.89
5732.00,0.89
5730.00,0.89
5728.00,0.89
5726.00,0.90
5724.00,0.90
5722.00,0.90
5720.00,0.90
5718.00,0.90
5716.00,0.90
5714.00,0.90
5712.00,0.90
5710.00,0.90
5708.00,0.90
5706.00,0.90
5704.00,0.90
5702.00,0.90
5700.00,0.90
5698.00,0.89
5696.00,0.89
5694.00,0.89
5692.00,0.89
5690.00,0.89
5688.00,0.89
5686.00,0.89
5684.00,0.89
5682.00,0.89
5680.00,0.89
5678.00,0.89
5676.00,0.89
5674.00,0.89
5672.00,0.89
5670.00,0.89
5668.00,0.89
5666.00,0.90
5664.00,0.90
5662.00,0.90
5660.00,0.90
5658.00,0.90
5656.00,0.90
5654.00,0.90
5652.00,0.90
5650.00,0.89
5648.00,0.89
5646.00,0.89
5644.00,0.89
5642.00,0.89
5640.00,0.90
5638.00,0.90
5636.00,0.90
5634.00,0.90
5632.00,0.90
5630.00,0.90
5628.00,0.90
5626.00,0.90
5624.00,0.90
5622.00,0.90
5620.00,0.90
5618.00,0.90
5616.00,0.90
5614.00,0.90
5612.00,0.90
5610.00,0.90
5608.00,0.91
5606.00,0.91
5604.00,0.91
5602.00,0.91
5600.00,0.91
5598.00,0.91
5596.00,0.91
5594.00,0.91
5592.00,0.91
5590.00,0.91
5588.00,0.91
5586.00,0.91
5584.00,0.91
5582.00,0.91
5580.00,0.91
5578.00,0.91
5576.00,0.91
5574.00,0.91
5572.00,0.91
5570.00,0.91
5568.00,0.91
5566.00,0.91
5564.00,0.91
5562.00,0.91
5560.00,0.91
5558.00,0.91
5556.00,0.91
5554.00,0.91
5552.00,0.91
5550.00,0.91
5548.00,0.91
5546.00,0.92
5544.00,0.92
5542.00,0.92
5540.00,0.92
5538.00,0.92
5536.00,0.92
5534.00,0.92
5532.00,0.92
5530.00,0.92
5528.00,0.92
5526.00,0.92
5524.00,0.92
5522.00,0.92
5520.00,0.92
5518.00,0.92
5516.00,0.92
5514.00,0.92
5512.00,0.92
5510.00,0.92
5508.00,0.92
5506.00,0.92
5504.00,0.92
5502.00,0.92
5500.00,0.92
5498.00,0.92
5496.00,0.92
5494.00,0.92
5492.00,0.92
5490.00,0.92
5488.00,0.92
5486.00,0.92
5484.00,0.92
5482.00,0.92
5480.00,0.92
5478.00,0.92
5476.00,0.92
5474.00,0.92
5472.00,0.92
5470.00,0.92
5468.00,0.92
5466.00,0.92
5464.00,0.92
5462.00,0.92
5460.00,0.92
5458.00,0.92
5456.00,0.92
5454.00,0.92
5452.00,0.92
5450.00,0.92
5448.00,0.92
5446.00,0.92
5444.00,0.92
5442.00,0.92
5440.00,0.92
5438.00,0.92
5436.00,0.92
5434.00,0.92
5432.00,0.92
5430.00,0.92
5428.00,0.92
5426.00,0.92
5424.00,0.92
5422.00,0.92
5420.00,0.92
5418.00,0.92
5416.00,0.92
5414.00,0.92
5412.00,0.92
5410.00,0.92
5408.00,0.92
5406.00,0.92
5404.00,0.92
5402.00,0.92
5400.00,0.92
5398.00,0.92
5396.00,0.92
5394.00,0.92
5392.00,0.92
5390.00,0.92
5388.00,0.92
5386.00,0.92
5384.00,0.92
5382.00,0.92
5380.00,0.92
5378.00,0.92
5376.00,0.92
5374.00,0.92
5372.00,0.92
5370.00,0.92
5368.00,0.92
5366.00,0.92
5364.00,0.92
5362.00,0.92
5360.00,0.91
5358.00,0.91
5356.00,0.91
5354.00,0.91
5352.00,0.91
5350.00,0.91
5348.00,0.90
5346.00,0.90
5344.00,0.90
5342.00,0.90
5340.00,0.90
5338.00,0.89
5336.00,0.89
5334.00,0.89
5332.00,0.89
5330.00,0.89
5328.00,0.88
5326.00,0.88
5324.00,0.88
5322.00,0.88
5320.00,0.87
5318.00,0.87
5316.00,0.87
5314.00,0.86
5312.00,0.86
5310.00,0.86
5308.00,0.85
5306.00,0.85
5304.00,0.85
5302.00,0.84
5300.00,0.84
5298.00,0.84
5296.00,0.83
5294.00,0.83
5292.00,0.82
5290.00,0.82
5288.00,0.82
5286.00,0.82
5284.00,0.81
5282.00,0.81
5280.00,0.81
5278.00,0.80
5276.00,0.80
5274.00,0.80
5272.00,0.80
5270.00,0.79
5268.00,0.79
5266.00,0.79
5264.00,0.79
5262.00,0.79
5260.00,0.78
5258.00,0.78
5256.00,0.78
5254.00,0.78
5252.00,0.77
5250.00,0.77
5248.00,0.77
5246.00,0.77
5244.00,0.76
5242.00,0.76
5240.00,0.76
5238.00,0.76
5236.00,0.76
5234.00,0.76
5232.00,0.76
5230.00,0.76
5228.00,0.76
5226.00,0.75
5224.00,0.75
5222.00,0.75
5220.00,0.75
5218.00,0.75
5216.00,0.75
5214.00,0.75
5212.00,0.74
5210.00,0.74
5208.00,0.74
5206.00,0.74
5204.00,0.73
5202.00,0.73
5200.00,0.73
5198.00,0.73
5196.00,0.73
5194.00,0.73
5192.00,0.73
5190.00,0.73
5188.00,0.73
5186.00,0.73
5184.00,0.73
5182.00,0.73
5180.00,0.73
5178.00,0.73
5176.00,0.73
5174.00,0.73
5172.00,0.73
5170.00,0.73
5168.00,0.73
5166.00,0.73
5164.00,0.73
5162.00,0.73
5160.00,0.73
5158.00,0.73
5156.00,0.73
5154.00,0.73
5152.00,0.74
5150.00,0.74
5148.00,0.74
5146.00,0.74
5144.00,0.74
5142.00,0.74
5140.00,0.74
5138.00,0.74
5136.00,0.74
5134.00,0.75
5132.00,0.75
5130.00,0.75
5128.00,0.75
5126.00,0.75
5124.00,0.75
5122.00,0.75
5120.00,0.75
5118.00,0.75
5116.00,0.75
5114.00,0.75
5112.00,0.75
5110.00,0.75
5108.00,0.75
5106.00,0.76
5104.00,0.76
5102.00,0.76
5100.00,0.76
5098.00,0.76
5096.00,0.76
5094.00,0.76
5092.00,0.77
5090.00,0.77
5088.00,0.77
5086.00,0.77
5084.00,0.77
5082.00,0.77
5080.00,0.77
5078.00,0.77
5076.00,0.78
5074.00,0.78
5072.00,0.78
5070.00,0.78
5068.00,0.78
5066.00,0.78
5064.00,0.79
5062.00,0.79
5060.00,0.79
5058.00,0.79
5056.00,0.79
5054.00,0.79
5052.00,0.79
5050.00,0.79
5048.00,0.80
5046.00,0.80
5044.00,0.80
5042.00,0.80
5040.00,0.80
5038.00,0.80
5036.00,0.80
5034.00,0.80
5032.00,0.80
5030.00,0.81
5028.00,0.81
5026.00,0.81
5024.00,0.81
5022.00,0.81
5020.00,0.81
5018.00,0.81
5016.00,0.81
5014.00,0.82
5012.00,0.82
5010.00,0.82
5008.00,0.82
5006.00,0.82
5004.00,0.82
5002.00,0.82
5000.00,0.82
4998.00,0.82
4996.00,0.82
4994.00,0.82
4992.00,0.82
4990.00,0.82
4988.00,0.82
4986.00,0.83
4984.00,0.83
4982.00,0.83
4980.00,0.83
4978.00,0.83
4976.00,0.83
4974.00,0.83
4972.00,0.83
4970.00,0.83
4968.00,0.84
4966.00,0.84
4964.00,0.84
4962.00,0.84
4960.00,0.84
4958.00,0.84
4956.00,0.84
4954.00,0.84
4952.00,0.84
4950.00,0.85
4948.00,0.85
4946.00,0.85
4944.00,0.85
4942.00,0.85
4940.00,0.85
4938.00,0.85
4936.00,0.85
4934.00,0.85
4932.00,0.85
4930.00,0.85
4928.00,0.85
4926.00,0.85
4924.00,0.85
4922.00,0.85
4920.00,0.85
4918.00,0.85
4916.00,0.85
4914.00,0.85
4912.00,0.86
4910.00,0.86
4908.00,0.86
4906.00,0.86
4904.00,0.86
4902.00,0.86
4900.00,0.86
4898.00,0.86
4896.00,0.86
4894.00,0.86
4892.00,0.86
4890.00,0.86
4888.00,0.86
4886.00,0.86
4884.00,0.86
4882.00,0.86
4880.00,0.86
4878.00,0.86
4876.00,0.86
4874.00,0.86
4872.00,0.86
4870.00,0.86
4868.00,0.86
4866.00,0.86
4864.00,0.86
4862.00,0.86
4860.00,0.86
4858.00,0.86
4856.00,0.86
4854.00,0.86
4852.00,0.86
4850.00,0.86
4848.00,0.86
4846.00,0.86
4844.00,0.86
4842.00,0.86
4840.00,0.86
4838.00,0.86
4836.00,0.87
4834.00,0.87
4832.00,0.87
4830.00,0.87
4828.00,0.87
4826.00,0.87
4824.00,0.87
4822.00,0.87
4820.00,0.87
4818.00,0.87
4816.00,0.87
4814.00,0.87
4812.00,0.87
4810.00,0.87
4808.00,0.87
4806.00,0.87
4804.00,0.87
4802.00,0.87
4800.00,0.87
4798.00,0.87
4796.00,0.87
4794.00,0.87
4792.00,0.87
4790.00,0.88
4788.00,0.88
4786.00,0.88
4784.00,0.88
4782.00,0.88
4780.00,0.88
4778.00,0.88
4776.00,0.88
4774.00,0.88
4772.00,0.88
4770.00,0.88
4768.00,0.88
4766.00,0.88
4764.00,0.88
4762.00,0.89
4760.00,0.89
4758.00,0.89
4756.00,0.89
4754.00,0.89
4752.00,0.89
4750.00,0.89
4748.00,0.89
4746.00,0.89
4744.00,0.89
4742.00,0.89
4740.00,0.89
4738.00,0.89
4736.00,0.89
4734.00,0.89
4732.00,0.89
4730.00,0.89
4728.00,0.89
4726.00,0.90
4724.00,0.90
4722.00,0.90
4720.00,0.90
4718.00,0.90
4716.00,0.90
4714.00,0.90
4712.00,0.90
4710.00,0.90
4708.00,0.90
4706.00,0.90
4704.00,0.90
4702.00,0.90
4700.00,0.90
4698.00,0.90
4696.00,0.90
4694.00,0.91
4692.00,0.91
4690.00,0.91
4688.00,0.91
4686.00,0.91
4684.00,0.91
4682.00,0.91
4680.00,0.91
4678.00,0.91
4676.00,0.91
4674.00,0.91
4672.00,0.91
4670.00,0.91
4668.00,0.91
4666.00,0.91
4664.00,0.91
4662.00,0.91
4660.00,0.91
4658.00,0.91
4656.00,0.91
4654.00,0.91
4652.00,0.91
4650.00,0.91
4648.00,0.91
4646.00,0.91
4644.00,0.91
4642.00,0.91
4640.00,0.91
4638.00,0.92
4636.00,0.92
4634.00,0.92
4632.00,0.92
4630.00,0.92
4628.00,0.92
4626.00,0.92
4624.00,0.92
4622.00,0.92
4620.00,0.92
4618.00,0.92
4616.00,0.92
4614.00,0.92
4612.00,0.92
4610.00,0.92
4608.00,0.92
4606.00,0.92
4604.00,0.92
4602.00,0.91
4600.00,0.91
4598.00,0.91
4596.00,0.91
4594.00,0.91
4592.00,0.92
4590.00,0.92
4588.00,0.92
4586.00,0.92
4584.00,0.92
4582.00,0.92
4580.00,0.92
4578.00,0.92
4576.00,0.92
4574.00,0.92
4572.00,0.92
4570.00,0.92
4568.00,0.92
4566.00,0.92
4564.00,0.92
4562.00,0.92
4560.00,0.92
4558.00,0.92
4556.00,0.92
4554.00,0.92
4552.00,0.92
4550.00,0.92
4548.00,0.92
4546.00,0.92
4544.00,0.92
4542.00,0.92
4540.00,0.92
4538.00,0.92
4536.00,0.92
4534.00,0.92
4532.00,0.92
4530.00,0.92
4528.00,0.92
4526.00,0.92
4524.00,0.92
4522.00,0.92
4520.00,0.92
4518.00,0.92
4516.00,0.92
4514.00,0.92
4512.00,0.92
4510.00,0.92
4508.00,0.92
4506.00,0.92
4504.00,0.92
4502.00,0.92
4500.00,0.92
4498.00,0.92
4496.00,0.92
4494.00,0.92
4492.00,0.92
4490.00,0.92
4488.00,0.92
4486.00,0.92
4484.00,0.92
4482.00,0.92
4480.00,0.92
4478.00,0.92
4476.00,0.92
4474.00,0.92
4472.00,0.92
4470.00,0.92
4468.00,0.92
4466.00,0.92
4464.00,0.92
4462.00,0.92
4460.00,0.92
4458.00,0.92
4456.00,0.91
4454.00,0.91
4452.00,0.91
4450.00,0.91
4448.00,0.91
4446.00,0.91
4444.00,0.91
4442.00,0.90
4440.00,0.90
4438.00,0.90
4436.00,0.89
4434.00,0.89
4432.00,0.88
4430.00,0.88
4428.00,0.88
4426.00,0.87
4424.00,0.87
4422.00,0.86
4420.00,0.86
4418.00,0.86
4416.00,0.85
4414.00,0.85
4412.00,0.85
4410.00,0.85
4408.00,0.85
4406.00,0.85
4404.00,0.85
4402.00,0.85
4400.00,0.85
4398.00,0.85
4396.00,0.85
4394.00,0.86
4392.00,0.86
4390.00,0.86
4388.00,0.86
4386.00,0.87
4384.00,0.87
4382.00,0.87
4380.00,0.88
4378.00,0.88
4376.00,0.88
4374.00,0.88
4372.00,0.88
4370.00,0.88
4368.00,0.88
4366.00,0.88
4364.00,0.88
4362.00,0.88
4360.00,0.88
4358.00,0.88
4356.00,0.87
4354.00,0.87
4352.00,0.87
4350.00,0.87
4348.00,0.86
4346.00,0.86
4344.00,0.86
4342.00,0.86
4340.00,0.86
4338.00,0.86
4336.00,0.86
4334.00,0.86
4332.00,0.86
4330.00,0.86
4328.00,0.87
4326.00,0.87
4324.00,0.88
4322.00,0.88
4320.00,0.88
4318.00,0.89
4316.00,0.89
4314.00,0.89
4312.00,0.90
4310.00,0.90
4308.00,0.90
4306.00,0.91
4304.00,0.91
4302.00,0.91
4300.00,0.91
4298.00,0.91
4296.00,0.92
4294.00,0.92
4292.00,0.92
4290.00,0.92
4288.00,0.92
4286.00,0.92
4284.00,0.92
4282.00,0.92
4280.00,0.92
4278.00,0.92
4276.00,0.92
4274.00,0.91
4272.00,0.91
4270.00,0.91
4268.00,0.91
4266.00,0.91
4264.00,0.90
4262.00,0.90
4260.00,0.90
4258.00,0.90
4256.00,0.90
4254.00,0.90
4252.00,0.90
4250.00,0.91
4248.00,0.91
4246.00,0.91
4244.00,0.91
4242.00,0.91
4240.00,0.91
4238.00,0.92
4236.00,0.92
4234.00,0.92
4232.00,0.92
4230.00,0.92
4228.00,0.92
4226.00,0.92
4224.00,0.92
4222.00,0.92
4220.00,0.92
4218.00,0.92
4216.00,0.92
4214.00,0.92
4212.00,0.92
4210.00,0.92
4208.00,0.92
4206.00,0.92
4204.00,0.92
4202.00,0.92
4200.00,0.92
4198.00,0.92
4196.00,0.92
4194.00,0.92
4192.00,0.92
4190.00,0.92
4188.00,0.92
4186.00,0.92
4184.00,0.92
4182.00,0.92
4180.00,0.92
4178.00,0.92
4176.00,0.92
4174.00,0.92
4172.00,0.92
4170.00,0.92
4168.00,0.92
4166.00,0.92
4164.00,0.92
4162.00,0.92
4160.00,0.92
4158.00,0.92
4156.00,0.92
4154.00,0.92
4152.00,0.92
4150.00,0.92
4148.00,0.92
4146.00,0.92
4144.00,0.92
4142.00,0.92
4140.00,0.92
4138.00,0.92
4136.00,0.92
4134.00,0.92
4132.00,0.92
4130.00,0.92
4128.00,0.92
4126.00,0.92
4124.00,0.92
4122.00,0.92
4120.00,0.92
4118.00,0.92
4116.00,0.92
4114.00,0.92
4112.00,0.92
4110.00,0.92
4108.00,0.92
4106.00,0.92
4104.00,0.92
4102.00,0.92
4100.00,0.92
4098.00,0.92
4096.00,0.92
4094.00,0.92
4092.00,0.91
4090.00,0.91
4088.00,0.91
4086.00,0.91
4084.00,0.91
4082.00,0.91
4080.00,0.91
4078.00,0.91
4076.00,0.91
4074.00,0.91
4072.00,0.91
4070.00,0.91
4068.00,0.91
4066.00,0.91
4064.00,0.91
4062.00,0.91
4060.00,0.91
4058.00,0.91
4056.00,0.91
4054.00,0.91
4052.00,0.91
4050.00,0.90
4048.00,0.90
4046.00,0.90
4044.00,0.90
4042.00,0.90
4040.00,0.90
4038.00,0.90
4036.00,0.90
4034.00,0.91
4032.00,0.91
4030.00,0.91
4028.00,0.91
4026.00,0.91
4024.00,0.91
4022.00,0.91
4020.00,0.91
4018.00,0.92
4016.00,0.92
4014.00,0.92
4012.00,0.92
4010.00,0.92
4008.00,0.92
4006.00,0.92
4004.00,0.92
4002.00,0.92
4000.00,0.92
