创建为新数据集,样品 1593 用户 Administrator 日期 星期日, 三月 12 2017
cm-1,%T
10000.00,0.94
9998.00,0.94
9996.00,0.94
9994.00,0.95
9992.00,0.95
9990.00,0.96
9988.00,0.96
9986.00,0.97
9984.00,0.98
9982.00,0.98
9980.00,0.98
9978.00,0.98
9976.00,0.97
9974.00,0.97
9972.00,0.96
9970.00,0.96
9968.00,0.96
9966.00,0.96
9964.00,0.95
9962.00,0.95
9960.00,0.96
9958.00,0.96
9956.00,0.96
9954.00,0.95
9952.00,0.95
9950.00,0.95
9948.00,0.95
9946.00,0.94
9944.00,0.94
9942.00,0.94
9940.00,0.95
9938.00,0.95
9936.00,0.95
9934.00,0.96
9932.00,0.96
9930.00,0.96
9928.00,0.96
9926.00,0.96
9924.00,0.96
9922.00,0.96
9920.00,0.97
9918.00,0.97
9916.00,0.97
9914.00,0.97
9912.00,0.97
9910.00,0.97
9908.00,0.97
9906.00,0.96
9904.00,0.96
9902.00,0.96
9900.00,0.96
9898.00,0.96
9896.00,0.96
9894.00,0.97
9892.00,0.97
9890.00,0.97
9888.00,0.97
9886.00,0.97
9884.00,0.97
9882.00,0.96
9880.00,0.96
9878.00,0.95
9876.00,0.95
9874.00,0.94
9872.00,0.94
9870.00,0.94
9868.00,0.93
9866.00,0.93
9864.00,0.93
9862.00,0.93
9860.00,0.93
9858.00,0.93
9856.00,0.93
9854.00,0.94
9852.00,0.94
9850.00,0.95
9848.00,0.95
9846.00,0.96
9844.00,0.96
9842.00,0.97
9840.00,0.97
9838.00,0.97
9836.00,0.97
9834.00,0.97
9832.00,0.97
9830.00,0.96
9828.00,0.96
9826.00,0.96
9824.00,0.95
9822.00,0.95
9820.00,0.95
9818.00,0.95
9816.00,0.95
9814.00,0.95
9812.00,0.95
9810.00,0.95
9808.00,0.95
9806.00,0.95
9804.00,0.95
9802.00,0.95
9800.00,0.95
9798.00,0.95
9796.00,0.95
9794.00,0.95
9792.00,0.96
9790.00,0.96
9788.00,0.97
9786.00,0.97
9784.00,0.97
9782.00,0.97
9780.00,0.97
9778.00,0.97
9776.00,0.97
9774.00,0.97
9772.00,0.97
9770.00,0.97
9768.00,0.97
9766.00,0.97
9764.00,0.96
9762.00,0.96
9760.00,0.95
9758.00,0.95
9756.00,0.94
9754.00,0.94
9752.00,0.94
9750.00,0.94
9748.00,0.95
9746.00,0.95
9744.00,0.95
9742.00,0.96
9740.00,0.96
9738.00,0.96
9736.00,0.96
9734.00,0.96
9732.00,0.96
9730.00,0.97
9728.00,0.97
9726.00,0.96
9724.00,0.96
9722.00,0.96
9720.00,0.96
9718.00,0.95
9716.00,0.95
9714.00,0.95
9712.00,0.95
9710.00,0.95
9708.00,0.95
9706.00,0.95
9704.00,0.95
9702.00,0.95
9700.00,0.94
9698.00,0.94
9696.00,0.94
9694.00,0.94
9692.00,0.94
9690.00,0.94
9688.00,0.94
9686.00,0.94
9684.00,0.95
9682.00,0.95
9680.00,0.95
9678.00,0.95
9676.00,0.95
9674.00,0.95
9672.00,0.96
9670.00,0.96
9668.00,0.96
9666.00,0.96
9664.00,0.96
9662.00,0.95
9660.00,0.95
9658.00,0.95
9656.00,0.95
9654.00,0.95
9652.00,0.95
9650.00,0.95
9648.00,0.95
9646.00,0.96
9644.00,0.96
9642.00,0.96
9640.00,0.96
9638.00,0.96
9636.00,0.96
9634.00,0.96
9632.00,0.95
9630.00,0.95
9628.00,0.95
9626.00,0.94
9624.00,0.94
9622.00,0.94
9620.00,0.94
9618.00,0.94
9616.00,0.94
9614.00,0.94
9612.00,0.95
9610.00,0.96
9608.00,0.96
9606.00,0.97
9604.00,0.97
9602.00,0.97
9600.00,0.97
9598.00,0.97
9596.00,0.97
9594.00,0.97
9592.00,0.97
9590.00,0.96
9588.00,0.96
9586.00,0.96
9584.00,0.96
9582.00,0.96
9580.00,0.95
9578.00,0.95
9576.00,0.95
9574.00,0.95
9572.00,0.95
9570.00,0.95
9568.00,0.95
9566.00,0.95
9564.00,0.94
9562.00,0.94
9560.00,0.94
9558.00,0.94
9556.00,0.94
9554.00,0.94
9552.00,0.94
9550.00,0.93
9548.00,0.93
9546.00,0.93
9544.00,0.93
9542.00,0.93
9540.00,0.93
9538.00,0.94
9536.00,0.94
9534.00,0.94
9532.00,0.94
9530.00,0.95
9528.00,0.95
9526.00,0.96
9524.00,0.96
9522.00,0.97
9520.00,0.97
9518.00,0.97
9516.00,0.96
9514.00,0.96
9512.00,0.95
9510.00,0.94
9508.00,0.94
9506.00,0.93
9504.00,0.93
9502.00,0.92
9500.00,0.92
9498.00,0.91
9496.00,0.91
9494.00,0.92
9492.00,0.92
9490.00,0.92
9488.00,0.93
9486.00,0.93
9484.00,0.94
9482.00,0.94
9480.00,0.94
9478.00,0.95
9476.00,0.95
9474.00,0.95
9472.00,0.95
9470.00,0.95
9468.00,0.95
9466.00,0.95
9464.00,0.95
9462.00,0.95
9460.00,0.94
9458.00,0.94
9456.00,0.94
9454.00,0.93
9452.00,0.93
9450.00,0.93
9448.00,0.93
9446.00,0.94
9444.00,0.94
9442.00,0.94
9440.00,0.95
9438.00,0.95
9436.00,0.96
9434.00,0.96
9432.00,0.96
9430.00,0.96
9428.00,0.96
9426.00,0.97
9424.00,0.97
9422.00,0.97
9420.00,0.96
9418.00,0.96
9416.00,0.96
9414.00,0.96
9412.00,0.96
9410.00,0.96
9408.00,0.96
9406.00,0.96
9404.00,0.96
9402.00,0.96
9400.00,0.96
9398.00,0.96
9396.00,0.95
9394.00,0.95
9392.00,0.95
9390.00,0.95
9388.00,0.94
9386.00,0.94
9384.00,0.95
9382.00,0.95
9380.00,0.95
9378.00,0.95
9376.00,0.96
9374.00,0.96
9372.00,0.96
9370.00,0.96
9368.00,0.96
9366.00,0.96
9364.00,0.96
9362.00,0.96
9360.00,0.96
9358.00,0.96
9356.00,0.96
9354.00,0.96
9352.00,0.96
9350.00,0.95
9348.00,0.95
9346.00,0.95
9344.00,0.95
9342.00,0.95
9340.00,0.95
9338.00,0.95
9336.00,0.95
9334.00,0.95
9332.00,0.95
9330.00,0.95
9328.00,0.95
9326.00,0.95
9324.00,0.95
9322.00,0.95
9320.00,0.95
9318.00,0.96
9316.00,0.96
9314.00,0.96
9312.00,0.96
9310.00,0.96
9308.00,0.96
9306.00,0.95
9304.00,0.95
9302.00,0.94
9300.00,0.94
9298.00,0.94
9296.00,0.94
9294.00,0.94
9292.00,0.94
9290.00,0.95
9288.00,0.95
9286.00,0.95
9284.00,0.95
9282.00,0.95
9280.00,0.95
9278.00,0.95
9276.00,0.95
9274.00,0.95
9272.00,0.95
9270.00,0.95
9268.00,0.95
9266.00,0.95
9264.00,0.95
9262.00,0.95
9260.00,0.95
9258.00,0.95
9256.00,0.95
9254.00,0.95
9252.00,0.95
9250.00,0.95
9248.00,0.95
9246.00,0.95
9244.00,0.95
9242.00,0.95
9240.00,0.95
9238.00,0.95
9236.00,0.95
9234.00,0.96
9232.00,0.95
9230.00,0.95
9228.00,0.95
9226.00,0.95
9224.00,0.95
9222.00,0.95
9220.00,0.95
9218.00,0.96
9216.00,0.96
9214.00,0.96
9212.00,0.97
9210.00,0.97
9208.00,0.97
9206.00,0.97
9204.00,0.96
9202.00,0.96
9200.00,0.96
9198.00,0.95
9196.00,0.96
9194.00,0.96
9192.00,0.96
9190.00,0.96
9188.00,0.96
9186.00,0.97
9184.00,0.97
9182.00,0.97
9180.00,0.97
9178.00,0.97
9176.00,0.97
9174.00,0.97
9172.00,0.97
9170.00,0.97
9168.00,0.96
9166.00,0.96
9164.00,0.96
9162.00,0.96
9160.00,0.95
9158.00,0.95
9156.00,0.95
9154.00,0.95
9152.00,0.95
9150.00,0.95
9148.00,0.95
9146.00,0.95
9144.00,0.95
9142.00,0.95
9140.00,0.95
9138.00,0.94
9136.00,0.94
9134.00,0.94
9132.00,0.94
9130.00,0.94
9128.00,0.94
9126.00,0.94
9124.00,0.95
9122.00,0.95
9120.00,0.96
9118.00,0.96
9116.00,0.96
9114.00,0.96
9112.00,0.96
9110.00,0.96
9108.00,0.95
9106.00,0.95
9104.00,0.95
9102.00,0.95
9100.00,0.96
9098.00,0.96
9096.00,0.96
9094.00,0.96
9092.00,0.96
9090.00,0.96
9088.00,0.96
9086.00,0.96
9084.00,0.96
9082.00,0.96
9080.00,0.96
9078.00,0.96
9076.00,0.96
9074.00,0.96
9072.00,0.96
9070.00,0.96
9068.00,0.96
9066.00,0.96
9064.00,0.96
9062.00,0.97
9060.00,0.97
9058.00,0.97
9056.00,0.97
9054.00,0.97
9052.00,0.96
9050.00,0.96
9048.00,0.96
9046.00,0.95
9044.00,0.95
9042.00,0.95
9040.00,0.95
9038.00,0.95
9036.00,0.95
9034.00,0.95
9032.00,0.95
9030.00,0.95
9028.00,0.95
9026.00,0.95
9024.00,0.94
9022.00,0.94
9020.00,0.94
9018.00,0.95
9016.00,0.95
9014.00,0.95
9012.00,0.95
9010.00,0.96
9008.00,0.96
9006.00,0.96
9004.00,0.96
9002.00,0.96
9000.00,0.96
8998.00,0.95
8996.00,0.95
8994.00,0.95
8992.00,0.95
8990.00,0.95
8988.00,0.95
8986.00,0.95
8984.00,0.95
8982.00,0.95
8980.00,0.95
8978.00,0.95
8976.00,0.95
8974.00,0.94
8972.00,0.94
8970.00,0.94
8968.00,0.94
8966.00,0.94
8964.00,0.94
8962.00,0.94
8960.00,0.94
8958.00,0.94
8956.00,0.94
8954.00,0.95
8952.00,0.95
8950.00,0.95
8948.00,0.94
8946.00,0.94
8944.00,0.94
8942.00,0.94
8940.00,0.94
8938.00,0.95
8936.00,0.95
8934.00,0.95
8932.00,0.95
8930.00,0.96
8928.00,0.96
8926.00,0.96
8924.00,0.96
8922.00,0.96
8920.00,0.96
8918.00,0.96
8916.00,0.96
8914.00,0.96
8912.00,0.96
8910.00,0.95
8908.00,0.95
8906.00,0.95
8904.00,0.95
8902.00,0.95
8900.00,0.95
8898.00,0.95
8896.00,0.95
8894.00,0.95
8892.00,0.95
8890.00,0.95
8888.00,0.95
8886.00,0.95
8884.00,0.95
8882.00,0.96
8880.00,0.96
8878.00,0.96
8876.00,0.96
8874.00,0.96
8872.00,0.95
8870.00,0.95
8868.00,0.95
8866.00,0.95
8864.00,0.94
8862.00,0.94
8860.00,0.95
8858.00,0.95
8856.00,0.95
8854.00,0.96
8852.00,0.96
8850.00,0.96
8848.00,0.96
8846.00,0.96
8844.00,0.96
8842.00,0.96
8840.00,0.96
8838.00,0.96
8836.00,0.96
8834.00,0.96
8832.00,0.96
8830.00,0.96
8828.00,0.96
8826.00,0.96
8824.00,0.96
8822.00,0.95
8820.00,0.95
8818.00,0.95
8816.00,0.94
8814.00,0.94
8812.00,0.94
8810.00,0.94
8808.00,0.94
8806.00,0.94
8804.00,0.94
8802.00,0.93
8800.00,0.93
8798.00,0.93
8796.00,0.93
8794.00,0.93
8792.00,0.93
8790.00,0.93
8788.00,0.93
8786.00,0.94
8784.00,0.94
8782.00,0.94
8780.00,0.94
8778.00,0.94
8776.00,0.94
8774.00,0.94
8772.00,0.94
8770.00,0.94
8768.00,0.94
8766.00,0.94
8764.00,0.94
8762.00,0.95
8760.00,0.95
8758.00,0.95
8756.00,0.95
8754.00,0.95
8752.00,0.95
8750.00,0.95
8748.00,0.95
8746.00,0.94
8744.00,0.94
8742.00,0.93
8740.00,0.93
8738.00,0.94
8736.00,0.94
8734.00,0.94
8732.00,0.95
8730.00,0.96
8728.00,0.96
8726.00,0.96
8724.00,0.97
8722.00,0.97
8720.00,0.96
8718.00,0.96
8716.00,0.96
8714.00,0.95
8712.00,0.95
8710.00,0.95
8708.00,0.95
8706.00,0.95
8704.00,0.95
8702.00,0.95
8700.00,0.94
8698.00,0.94
8696.00,0.94
8694.00,0.94
8692.00,0.94
8690.00,0.94
8688.00,0.95
8686.00,0.95
8684.00,0.95
8682.00,0.96
8680.00,0.96
8678.00,0.96
8676.00,0.96
8674.00,0.96
8672.00,0.95
8670.00,0.95
8668.00,0.95
8666.00,0.95
8664.00,0.95
8662.00,0.95
8660.00,0.95
8658.00,0.95
8656.00,0.95
8654.00,0.95
8652.00,0.95
8650.00,0.95
8648.00,0.95
8646.00,0.95
8644.00,0.95
8642.00,0.94
8640.00,0.94
8638.00,0.94
8636.00,0.94
8634.00,0.93
8632.00,0.93
8630.00,0.93
8628.00,0.92
8626.00,0.92
8624.00,0.92
8622.00,0.92
8620.00,0.92
8618.00,0.92
8616.00,0.92
8614.00,0.92
8612.00,0.92
8610.00,0.93
8608.00,0.93
8606.00,0.93
8604.00,0.93
8602.00,0.93
8600.00,0.93
8598.00,0.93
8596.00,0.93
8594.00,0.93
8592.00,0.94
8590.00,0.94
8588.00,0.94
8586.00,0.94
8584.00,0.94
8582.00,0.95
8580.00,0.95
8578.00,0.95
8576.00,0.95
8574.00,0.95
8572.00,0.95
8570.00,0.94
8568.00,0.94
8566.00,0.94
8564.00,0.94
8562.00,0.94
8560.00,0.94
8558.00,0.94
8556.00,0.94
8554.00,0.94
8552.00,0.94
8550.00,0.95
8548.00,0.95
8546.00,0.95
8544.00,0.95
8542.00,0.95
8540.00,0.95
8538.00,0.95
8536.00,0.95
8534.00,0.94
8532.00,0.94
8530.00,0.94
8528.00,0.94
8526.00,0.94
8524.00,0.94
8522.00,0.94
8520.00,0.94
8518.00,0.94
8516.00,0.94
8514.00,0.95
8512.00,0.95
8510.00,0.95
8508.00,0.95
8506.00,0.95
8504.00,0.95
8502.00,0.95
8500.00,0.95
8498.00,0.95
8496.00,0.95
8494.00,0.95
8492.00,0.95
8490.00,0.95
8488.00,0.94
8486.00,0.94
8484.00,0.94
8482.00,0.93
8480.00,0.93
8478.00,0.93
8476.00,0.93
8474.00,0.93
8472.00,0.94
8470.00,0.94
8468.00,0.94
8466.00,0.95
8464.00,0.95
8462.00,0.95
8460.00,0.95
8458.00,0.94
8456.00,0.94
8454.00,0.94
8452.00,0.94
8450.00,0.93
8448.00,0.94
8446.00,0.94
8444.00,0.94
8442.00,0.94
8440.00,0.94
8438.00,0.94
8436.00,0.94
8434.00,0.94
8432.00,0.94
8430.00,0.94
8428.00,0.94
8426.00,0.93
8424.00,0.93
8422.00,0.93
8420.00,0.93
8418.00,0.93
8416.00,0.93
8414.00,0.94
8412.00,0.94
8410.00,0.94
8408.00,0.95
8406.00,0.95
8404.00,0.95
8402.00,0.94
8400.00,0.94
8398.00,0.94
8396.00,0.93
8394.00,0.93
8392.00,0.92
8390.00,0.92
8388.00,0.92
8386.00,0.92
8384.00,0.92
8382.00,0.92
8380.00,0.93
8378.00,0.93
8376.00,0.93
8374.00,0.93
8372.00,0.93
8370.00,0.93
8368.00,0.93
8366.00,0.93
8364.00,0.93
8362.00,0.94
8360.00,0.94
8358.00,0.94
8356.00,0.94
8354.00,0.94
8352.00,0.94
8350.00,0.94
8348.00,0.95
8346.00,0.95
8344.00,0.95
8342.00,0.95
8340.00,0.95
8338.00,0.95
8336.00,0.95
8334.00,0.95
8332.00,0.94
8330.00,0.94
8328.00,0.94
8326.00,0.94
8324.00,0.94
8322.00,0.94
8320.00,0.94
8318.00,0.94
8316.00,0.94
8314.00,0.94
8312.00,0.94
8310.00,0.94
8308.00,0.93
8306.00,0.93
8304.00,0.93
8302.00,0.93
8300.00,0.94
8298.00,0.94
8296.00,0.94
8294.00,0.95
8292.00,0.95
8290.00,0.95
8288.00,0.95
8286.00,0.95
8284.00,0.95
8282.00,0.95
8280.00,0.95
8278.00,0.95
8276.00,0.95
8274.00,0.95
8272.00,0.95
8270.00,0.95
8268.00,0.96
8266.00,0.96
8264.00,0.96
8262.00,0.96
8260.00,0.96
8258.00,0.96
8256.00,0.96
8254.00,0.96
8252.00,0.95
8250.00,0.95
8248.00,0.95
8246.00,0.95
8244.00,0.95
8242.00,0.95
8240.00,0.96
8238.00,0.96
8236.00,0.96
8234.00,0.96
8232.00,0.96
8230.00,0.96
8228.00,0.96
8226.00,0.96
8224.00,0.96
8222.00,0.95
8220.00,0.95
8218.00,0.95
8216.00,0.95
8214.00,0.95
8212.00,0.95
8210.00,0.95
8208.00,0.95
8206.00,0.95
8204.00,0.95
8202.00,0.95
8200.00,0.95
8198.00,0.95
8196.00,0.95
8194.00,0.95
8192.00,0.95
8190.00,0.94
8188.00,0.94
8186.00,0.94
8184.00,0.94
8182.00,0.94
8180.00,0.94
8178.00,0.94
8176.00,0.94
8174.00,0.95
8172.00,0.95
8170.00,0.95
8168.00,0.95
8166.00,0.95
8164.00,0.95
8162.00,0.95
8160.00,0.95
8158.00,0.94
8156.00,0.94
8154.00,0.94
8152.00,0.94
8150.00,0.95
8148.00,0.95
8146.00,0.95
8144.00,0.95
8142.00,0.95
8140.00,0.95
8138.00,0.95
8136.00,0.95
8134.00,0.95
8132.00,0.95
8130.00,0.96
8128.00,0.96
8126.00,0.96
8124.00,0.96
8122.00,0.96
8120.00,0.96
8118.00,0.96
8116.00,0.96
8114.00,0.96
8112.00,0.96
8110.00,0.96
8108.00,0.96
8106.00,0.96
8104.00,0.96
8102.00,0.96
8100.00,0.96
8098.00,0.95
8096.00,0.95
8094.00,0.95
8092.00,0.95
8090.00,0.95
8088.00,0.95
8086.00,0.95
8084.00,0.95
8082.00,0.94
8080.00,0.94
8078.00,0.94
8076.00,0.94
8074.00,0.94
8072.00,0.94
8070.00,0.94
8068.00,0.94
8066.00,0.94
8064.00,0.94
8062.00,0.94
8060.00,0.94
8058.00,0.94
8056.00,0.94
8054.00,0.94
8052.00,0.94
8050.00,0.94
8048.00,0.94
8046.00,0.95
8044.00,0.95
8042.00,0.95
8040.00,0.95
8038.00,0.95
8036.00,0.95
8034.00,0.95
8032.00,0.95
8030.00,0.95
8028.00,0.95
8026.00,0.95
8024.00,0.95
8022.00,0.95
8020.00,0.95
8018.00,0.95
8016.00,0.95
8014.00,0.95
8012.00,0.95
8010.00,0.95
8008.00,0.95
8006.00,0.95
8004.00,0.94
8002.00,0.94
8000.00,0.94
7998.00,0.94
7996.00,0.94
7994.00,0.94
7992.00,0.94
7990.00,0.94
7988.00,0.94
7986.00,0.94
7984.00,0.94
7982.00,0.94
7980.00,0.94
7978.00,0.95
7976.00,0.95
7974.00,0.95
7972.00,0.95
7970.00,0.96
7968.00,0.96
7966.00,0.96
7964.00,0.96
7962.00,0.96
7960.00,0.96
7958.00,0.96
7956.00,0.96
7954.00,0.96
7952.00,0.96
7950.00,0.96
7948.00,0.96
7946.00,0.96
7944.00,0.96
7942.00,0.96
7940.00,0.96
7938.00,0.96
7936.00,0.96
7934.00,0.96
7932.00,0.96
7930.00,0.95
7928.00,0.95
7926.00,0.95
7924.00,0.95
7922.00,0.95
7920.00,0.95
7918.00,0.95
7916.00,0.95
7914.00,0.95
7912.00,0.95
7910.00,0.95
7908.00,0.95
7906.00,0.95
7904.00,0.95
7902.00,0.95
7900.00,0.95
7898.00,0.95
7896.00,0.95
7894.00,0.95
7892.00,0.95
7890.00,0.95
7888.00,0.95
7886.00,0.95
7884.00,0.95
7882.00,0.95
7880.00,0.95
7878.00,0.95
7876.00,0.95
7874.00,0.95
7872.00,0.95
7870.00,0.95
7868.00,0.95
7866.00,0.95
7864.00,0.95
7862.00,0.95
7860.00,0.95
7858.00,0.95
7856.00,0.95
7854.00,0.95
7852.00,0.95
7850.00,0.95
7848.00,0.95
7846.00,0.95
7844.00,0.95
7842.00,0.95
7840.00,0.95
7838.00,0.95
7836.00,0.95
7834.00,0.95
7832.00,0.95
7830.00,0.95
7828.00,0.95
7826.00,0.95
7824.00,0.95
7822.00,0.96
7820.00,0.96
7818.00,0.96
7816.00,0.96
7814.00,0.96
7812.00,0.96
7810.00,0.96
7808.00,0.96
7806.00,0.96
7804.00,0.96
7802.00,0.96
7800.00,0.96
7798.00,0.96
7796.00,0.96
7794.00,0.96
7792.00,0.96
7790.00,0.96
7788.00,0.96
7786.00,0.96
7784.00,0.96
7782.00,0.97
7780.00,0.97
7778.00,0.97
7776.00,0.97
7774.00,0.96
7772.00,0.97
7770.00,0.97
7768.00,0.97
7766.00,0.97
7764.00,0.97
7762.00,0.97
7760.00,0.97
7758.00,0.97
7756.00,0.97
7754.00,0.97
7752.00,0.97
7750.00,0.97
7748.00,0.96
7746.00,0.96
7744.00,0.96
7742.00,0.96
7740.00,0.96
7738.00,0.95
7736.00,0.95
7734.00,0.95
7732.00,0.95
7730.00,0.95
7728.00,0.95
7726.00,0.95
7724.00,0.95
7722.00,0.95
7720.00,0.96
7718.00,0.96
7716.00,0.96
7714.00,0.96
7712.00,0.95
7710.00,0.95
7708.00,0.95
7706.00,0.95
7704.00,0.95
7702.00,0.96
7700.00,0.96
7698.00,0.96
7696.00,0.96
7694.00,0.96
7692.00,0.96
7690.00,0.96
7688.00,0.96
7686.00,0.96
7684.00,0.96
7682.00,0.96
7680.00,0.96
7678.00,0.96
7676.00,0.96
7674.00,0.96
7672.00,0.96
7670.00,0.95
7668.00,0.95
7666.00,0.95
7664.00,0.95
7662.00,0.95
7660.00,0.95
7658.00,0.95
7656.00,0.95
7654.00,0.96
7652.00,0.96
7650.00,0.96
7648.00,0.96
7646.00,0.96
7644.00,0.96
7642.00,0.96
7640.00,0.96
7638.00,0.96
7636.00,0.95
7634.00,0.95
7632.00,0.95
7630.00,0.95
7628.00,0.95
7626.00,0.96
7624.00,0.96
7622.00,0.96
7620.00,0.96
7618.00,0.96
7616.00,0.96
7614.00,0.96
7612.00,0.96
7610.00,0.95
7608.00,0.95
7606.00,0.95
7604.00,0.95
7602.00,0.95
7600.00,0.96
7598.00,0.96
7596.00,0.96
7594.00,0.96
7592.00,0.96
7590.00,0.97
7588.00,0.97
7586.00,0.97
7584.00,0.97
7582.00,0.97
7580.00,0.96
7578.00,0.96
7576.00,0.96
7574.00,0.96
7572.00,0.96
7570.00,0.96
7568.00,0.96
7566.00,0.96
7564.00,0.96
7562.00,0.96
7560.00,0.96
7558.00,0.96
7556.00,0.96
7554.00,0.96
7552.00,0.96
7550.00,0.96
7548.00,0.96
7546.00,0.96
7544.00,0.96
7542.00,0.96
7540.00,0.96
7538.00,0.96
7536.00,0.96
7534.00,0.96
7532.00,0.96
7530.00,0.96
7528.00,0.96
7526.00,0.96
7524.00,0.96
7522.00,0.96
7520.00,0.96
7518.00,0.96
7516.00,0.96
7514.00,0.96
7512.00,0.96
7510.00,0.96
7508.00,0.95
7506.00,0.95
7504.00,0.96
7502.00,0.96
7500.00,0.96
7498.00,0.96
7496.00,0.96
7494.00,0.95
7492.00,0.95
7490.00,0.95
7488.00,0.95
7486.00,0.95
7484.00,0.95
7482.00,0.95
7480.00,0.95
7478.00,0.95
7476.00,0.95
7474.00,0.95
7472.00,0.95
7470.00,0.95
7468.00,0.96
7466.00,0.96
7464.00,0.96
7462.00,0.95
7460.00,0.95
7458.00,0.95
7456.00,0.95
7454.00,0.95
7452.00,0.95
7450.00,0.95
7448.00,0.95
7446.00,0.95
7444.00,0.95
7442.00,0.95
7440.00,0.95
7438.00,0.95
7436.00,0.95
7434.00,0.95
7432.00,0.95
7430.00,0.95
7428.00,0.95
7426.00,0.95
7424.00,0.95
7422.00,0.95
7420.00,0.95
7418.00,0.95
7416.00,0.95
7414.00,0.95
7412.00,0.95
7410.00,0.95
7408.00,0.95
7406.00,0.95
7404.00,0.95
7402.00,0.95
7400.00,0.95
7398.00,0.95
7396.00,0.95
7394.00,0.95
7392.00,0.95
7390.00,0.95
7388.00,0.95
7386.00,0.95
7384.00,0.95
7382.00,0.95
7380.00,0.95
7378.00,0.95
7376.00,0.95
7374.00,0.95
7372.00,0.95
7370.00,0.95
7368.00,0.95
7366.00,0.95
7364.00,0.95
7362.00,0.94
7360.00,0.94
7358.00,0.94
7356.00,0.94
7354.00,0.94
7352.00,0.94
7350.00,0.94
7348.00,0.93
7346.00,0.93
7344.00,0.93
7342.00,0.93
7340.00,0.93
7338.00,0.93
7336.00,0.94
7334.00,0.94
7332.00,0.94
7330.00,0.94
7328.00,0.94
7326.00,0.94
7324.00,0.94
7322.00,0.94
7320.00,0.94
7318.00,0.94
7316.00,0.94
7314.00,0.94
7312.00,0.94
7310.00,0.94
7308.00,0.94
7306.00,0.94
7304.00,0.94
7302.00,0.94
7300.00,0.94
7298.00,0.94
7296.00,0.94
7294.00,0.95
7292.00,0.95
7290.00,0.95
7288.00,0.95
7286.00,0.94
7284.00,0.94
7282.00,0.94
7280.00,0.94
7278.00,0.94
7276.00,0.94
7274.00,0.94
7272.00,0.94
7270.00,0.94
7268.00,0.94
7266.00,0.95
7264.00,0.95
7262.00,0.95
7260.00,0.95
7258.00,0.94
7256.00,0.94
7254.00,0.94
7252.00,0.94
7250.00,0.93
7248.00,0.93
7246.00,0.93
7244.00,0.93
7242.00,0.93
7240.00,0.93
7238.00,0.93
7236.00,0.93
7234.00,0.93
7232.00,0.93
7230.00,0.92
7228.00,0.92
7226.00,0.92
7224.00,0.92
7222.00,0.92
7220.00,0.92
7218.00,0.92
7216.00,0.92
7214.00,0.92
7212.00,0.92
7210.00,0.92
7208.00,0.92
7206.00,0.92
7204.00,0.92
7202.00,0.91
7200.00,0.91
7198.00,0.91
7196.00,0.91
7194.00,0.91
7192.00,0.91
7190.00,0.91
7188.00,0.91
7186.00,0.91
7184.00,0.91
7182.00,0.91
7180.00,0.91
7178.00,0.91
7176.00,0.91
7174.00,0.90
7172.00,0.90
7170.00,0.90
7168.00,0.90
7166.00,0.90
7164.00,0.90
7162.00,0.90
7160.00,0.90
7158.00,0.90
7156.00,0.90
7154.00,0.90
7152.00,0.90
7150.00,0.89
7148.00,0.89
7146.00,0.89
7144.00,0.89
7142.00,0.89
7140.00,0.89
7138.00,0.89
7136.00,0.89
7134.00,0.90
7132.00,0.90
7130.00,0.90
7128.00,0.90
7126.00,0.90
7124.00,0.90
7122.00,0.90
7120.00,0.89
7118.00,0.89
7116.00,0.89
7114.00,0.89
7112.00,0.89
7110.00,0.89
7108.00,0.88
7106.00,0.88
7104.00,0.88
7102.00,0.88
7100.00,0.88
7098.00,0.88
7096.00,0.88
7094.00,0.88
7092.00,0.88
7090.00,0.88
7088.00,0.88
7086.00,0.88
7084.00,0.88
7082.00,0.88
7080.00,0.87
7078.00,0.87
7076.00,0.88
7074.00,0.88
7072.00,0.88
7070.00,0.88
7068.00,0.88
7066.00,0.87
7064.00,0.87
7062.00,0.87
7060.00,0.87
7058.00,0.87
7056.00,0.86
7054.00,0.86
7052.00,0.86
7050.00,0.87
7048.00,0.87
7046.00,0.87
7044.00,0.87
7042.00,0.87
7040.00,0.87
7038.00,0.87
7036.00,0.87
7034.00,0.87
7032.00,0.87
7030.00,0.86
7028.00,0.86
7026.00,0.86
7024.00,0.86
7022.00,0.86
7020.00,0.86
7018.00,0.87
7016.00,0.87
7014.00,0.87
7012.00,0.87
7010.00,0.87
7008.00,0.87
7006.00,0.87
7004.00,0.86
7002.00,0.86
7000.00,0.86
6998.00,0.86
6996.00,0.86
6994.00,0.86
6992.00,0.86
6990.00,0.86
6988.00,0.86
6986.00,0.86
6984.00,0.86
6982.00,0.86
6980.00,0.86
6978.00,0.86
6976.00,0.86
6974.00,0.86
6972.00,0.86
6970.00,0.86
6968.00,0.86
6966.00,0.86
6964.00,0.86
6962.00,0.86
6960.00,0.86
6958.00,0.86
6956.00,0.86
6954.00,0.86
6952.00,0.86
6950.00,0.86
6948.00,0.86
6946.00,0.86
6944.00,0.86
6942.00,0.86
6940.00,0.86
6938.00,0.86
6936.00,0.86
6934.00,0.86
6932.00,0.85
6930.00,0.85
6928.00,0.85
6926.00,0.85
6924.00,0.85
6922.00,0.85
6920.00,0.85
6918.00,0.85
6916.00,0.85
6914.00,0.85
6912.00,0.85
6910.00,0.85
6908.00,0.85
6906.00,0.85
6904.00,0.85
6902.00,0.85
6900.00,0.85
6898.00,0.85
6896.00,0.85
6894.00,0.85
6892.00,0.85
6890.00,0.86
6888.00,0.85
6886.00,0.85
6884.00,0.85
6882.00,0.85
6880.00,0.85
6878.00,0.85
6876.00,0.85
6874.00,0.85
6872.00,0.85
6870.00,0.85
6868.00,0.85
6866.00,0.85
6864.00,0.85
6862.00,0.85
6860.00,0.85
6858.00,0.85
6856.00,0.85
6854.00,0.85
6852.00,0.85
6850.00,0.85
6848.00,0.85
6846.00,0.85
6844.00,0.85
6842.00,0.85
6840.00,0.85
6838.00,0.85
6836.00,0.85
6834.00,0.85
6832.00,0.85
6830.00,0.85
6828.00,0.85
6826.00,0.85
6824.00,0.85
6822.00,0.85
6820.00,0.85
6818.00,0.85
6816.00,0.85
6814.00,0.86
6812.00,0.86
6810.00,0.86
6808.00,0.86
6806.00,0.86
6804.00,0.86
6802.00,0.86
6800.00,0.86
6798.00,0.86
6796.00,0.86
6794.00,0.86
6792.00,0.86
6790.00,0.86
6788.00,0.86
6786.00,0.86
6784.00,0.86
6782.00,0.86
6780.00,0.86
6778.00,0.86
6776.00,0.86
6774.00,0.86
6772.00,0.87
6770.00,0.87
6768.00,0.87
6766.00,0.87
6764.00,0.87
6762.00,0.87
6760.00,0.87
6758.00,0.87
6756.00,0.87
6754.00,0.87
6752.00,0.87
6750.00,0.86
6748.00,0.86
6746.00,0.86
6744.00,0.86
6742.00,0.86
6740.00,0.86
6738.00,0.86
6736.00,0.86
6734.00,0.86
6732.00,0.86
6730.00,0.86
6728.00,0.86
6726.00,0.86
6724.00,0.86
6722.00,0.86
6720.00,0.86
6718.00,0.86
6716.00,0.86
6714.00,0.86
6712.00,0.86
6710.00,0.86
6708.00,0.86
6706.00,0.86
6704.00,0.87
6702.00,0.87
6700.00,0.87
6698.00,0.87
6696.00,0.87
6694.00,0.87
6692.00,0.87
6690.00,0.87
6688.00,0.87
6686.00,0.87
6684.00,0.87
6682.00,0.87
6680.00,0.87
6678.00,0.87
6676.00,0.87
6674.00,0.87
6672.00,0.87
6670.00,0.87
6668.00,0.87
6666.00,0.87
6664.00,0.87
6662.00,0.87
6660.00,0.87
6658.00,0.87
6656.00,0.87
6654.00,0.87
6652.00,0.87
6650.00,0.87
6648.00,0.87
6646.00,0.88
6644.00,0.88
6642.00,0.88
6640.00,0.88
6638.00,0.88
6636.00,0.88
6634.00,0.88
6632.00,0.88
6630.00,0.88
6628.00,0.88
6626.00,0.88
6624.00,0.88
6622.00,0.88
6620.00,0.88
6618.00,0.88
6616.00,0.88
6614.00,0.88
6612.00,0.88
6610.00,0.88
6608.00,0.88
6606.00,0.88
6604.00,0.89
6602.00,0.89
6600.00,0.89
6598.00,0.89
6596.00,0.89
6594.00,0.89
6592.00,0.89
6590.00,0.89
6588.00,0.89
6586.00,0.89
6584.00,0.89
6582.00,0.89
6580.00,0.89
6578.00,0.89
6576.00,0.89
6574.00,0.89
6572.00,0.89
6570.00,0.89
6568.00,0.89
6566.00,0.89
6564.00,0.89
6562.00,0.89
6560.00,0.89
6558.00,0.89
6556.00,0.89
6554.00,0.89
6552.00,0.89
6550.00,0.89
6548.00,0.89
6546.00,0.90
6544.00,0.90
6542.00,0.90
6540.00,0.90
6538.00,0.90
6536.00,0.90
6534.00,0.90
6532.00,0.90
6530.00,0.90
6528.00,0.90
6526.00,0.90
6524.00,0.90
6522.00,0.90
6520.00,0.90
6518.00,0.90
6516.00,0.90
6514.00,0.90
6512.00,0.90
6510.00,0.90
6508.00,0.90
6506.00,0.90
6504.00,0.90
6502.00,0.90
6500.00,0.90
6498.00,0.90
6496.00,0.90
6494.00,0.90
6492.00,0.90
6490.00,0.89
6488.00,0.89
6486.00,0.89
6484.00,0.90
6482.00,0.90
6480.00,0.90
6478.00,0.90
6476.00,0.90
6474.00,0.90
6472.00,0.90
6470.00,0.90
6468.00,0.90
6466.00,0.90
6464.00,0.90
6462.00,0.90
6460.00,0.90
6458.00,0.90
6456.00,0.90
6454.00,0.90
6452.00,0.90
6450.00,0.90
6448.00,0.90
6446.00,0.90
6444.00,0.90
6442.00,0.90
6440.00,0.90
6438.00,0.90
6436.00,0.90
6434.00,0.90
6432.00,0.90
6430.00,0.90
6428.00,0.90
6426.00,0.90
6424.00,0.90
6422.00,0.90
6420.00,0.90
6418.00,0.90
6416.00,0.90
6414.00,0.90
6412.00,0.90
6410.00,0.90
6408.00,0.91
6406.00,0.91
6404.00,0.91
6402.00,0.91
6400.00,0.91
6398.00,0.91
6396.00,0.91
6394.00,0.91
6392.00,0.91
6390.00,0.91
6388.00,0.91
6386.00,0.91
6384.00,0.91
6382.00,0.91
6380.00,0.91
6378.00,0.91
6376.00,0.91
6374.00,0.91
6372.00,0.91
6370.00,0.91
6368.00,0.91
6366.00,0.91
6364.00,0.91
6362.00,0.91
6360.00,0.91
6358.00,0.91
6356.00,0.91
6354.00,0.91
6352.00,0.91
6350.00,0.91
6348.00,0.91
6346.00,0.91
6344.00,0.92
6342.00,0.92
6340.00,0.92
6338.00,0.92
6336.00,0.92
6334.00,0.92
6332.00,0.92
6330.00,0.91
6328.00,0.91
6326.00,0.91
6324.00,0.91
6322.00,0.91
6320.00,0.91
6318.00,0.91
6316.00,0.91
6314.00,0.91
6312.00,0.91
6310.00,0.91
6308.00,0.92
6306.00,0.92
6304.00,0.92
6302.00,0.92
6300.00,0.92
6298.00,0.92
6296.00,0.92
6294.00,0.92
6292.00,0.92
6290.00,0.92
6288.00,0.92
6286.00,0.92
6284.00,0.92
6282.00,0.92
6280.00,0.92
6278.00,0.92
6276.00,0.92
6274.00,0.92
6272.00,0.92
6270.00,0.92
6268.00,0.92
6266.00,0.92
6264.00,0.92
6262.00,0.92
6260.00,0.92
6258.00,0.92
6256.00,0.92
6254.00,0.92
6252.00,0.93
6250.00,0.93
6248.00,0.93
6246.00,0.93
6244.00,0.93
6242.00,0.93
6240.00,0.93
6238.00,0.92
6236.00,0.92
6234.00,0.92
6232.00,0.92
6230.00,0.92
6228.00,0.92
6226.00,0.92
6224.00,0.92
6222.00,0.92
6220.00,0.92
6218.00,0.92
6216.00,0.92
6214.00,0.92
6212.00,0.92
6210.00,0.92
6208.00,0.93
6206.00,0.93
6204.00,0.93
6202.00,0.93
6200.00,0.93
6198.00,0.93
6196.00,0.93
6194.00,0.93
6192.00,0.93
6190.00,0.93
6188.00,0.93
6186.00,0.93
6184.00,0.93
6182.00,0.93
6180.00,0.93
6178.00,0.93
6176.00,0.93
6174.00,0.93
6172.00,0.93
6170.00,0.94
6168.00,0.94
6166.00,0.94
6164.00,0.94
6162.00,0.94
6160.00,0.94
6158.00,0.94
6156.00,0.94
6154.00,0.94
6152.00,0.94
6150.00,0.94
6148.00,0.94
6146.00,0.94
6144.00,0.94
6142.00,0.94
6140.00,0.94
6138.00,0.94
6136.00,0.94
6134.00,0.94
6132.00,0.94
6130.00,0.94
6128.00,0.94
6126.00,0.94
6124.00,0.94
6122.00,0.94
6120.00,0.94
6118.00,0.94
6116.00,0.94
6114.00,0.94
6112.00,0.94
6110.00,0.94
6108.00,0.94
6106.00,0.94
6104.00,0.94
6102.00,0.94
6100.00,0.94
6098.00,0.95
6096.00,0.95
6094.00,0.95
6092.00,0.95
6090.00,0.95
6088.00,0.95
6086.00,0.95
6084.00,0.95
6082.00,0.95
6080.00,0.95
6078.00,0.95
6076.00,0.95
6074.00,0.95
6072.00,0.95
6070.00,0.95
6068.00,0.95
6066.00,0.95
6064.00,0.95
6062.00,0.95
6060.00,0.95
6058.00,0.95
6056.00,0.95
6054.00,0.95
6052.00,0.95
6050.00,0.95
6048.00,0.95
6046.00,0.95
6044.00,0.95
6042.00,0.95
6040.00,0.95
6038.00,0.95
6036.00,0.95
6034.00,0.95
6032.00,0.95
6030.00,0.95
6028.00,0.95
6026.00,0.95
6024.00,0.95
6022.00,0.95
6020.00,0.95
6018.00,0.95
6016.00,0.95
6014.00,0.95
6012.00,0.95
6010.00,0.95
6008.00,0.95
6006.00,0.95
6004.00,0.95
6002.00,0.95
6000.00,0.95
5998.00,0.95
5996.00,0.95
5994.00,0.95
5992.00,0.95
5990.00,0.95
5988.00,0.95
5986.00,0.95
5984.00,0.95
5982.00,0.95
5980.00,0.95
5978.00,0.95
5976.00,0.95
5974.00,0.95
5972.00,0.94
5970.00,0.94
5968.00,0.94
5966.00,0.94
5964.00,0.94
5962.00,0.94
5960.00,0.93
5958.00,0.93
5956.00,0.93
5954.00,0.93
5952.00,0.93
5950.00,0.93
5948.00,0.92
5946.00,0.92
5944.00,0.92
5942.00,0.92
5940.00,0.92
5938.00,0.92
5936.00,0.92
5934.00,0.92
5932.00,0.92
5930.00,0.92
5928.00,0.92
5926.00,0.92
5924.00,0.92
5922.00,0.92
5920.00,0.92
5918.00,0.92
5916.00,0.92
5914.00,0.92
5912.00,0.92
5910.00,0.91
5908.00,0.91
5906.00,0.91
5904.00,0.91
5902.00,0.91
5900.00,0.91
5898.00,0.91
5896.00,0.92
5894.00,0.92
5892.00,0.92
5890.00,0.92
5888.00,0.92
5886.00,0.92
5884.00,0.92
5882.00,0.92
5880.00,0.92
5878.00,0.92
5876.00,0.92
5874.00,0.92
5872.00,0.92
5870.00,0.92
5868.00,0.92
5866.00,0.92
5864.00,0.92
5862.00,0.93
5860.00,0.93
5858.00,0.93
5856.00,0.93
5854.00,0.93
5852.00,0.93
5850.00,0.93
5848.00,0.93
5846.00,0.93
5844.00,0.93
5842.00,0.93
5840.00,0.93
5838.00,0.93
5836.00,0.93
5834.00,0.93
5832.00,0.93
5830.00,0.93
5828.00,0.93
5826.00,0.93
5824.00,0.93
5822.00,0.93
5820.00,0.93
5818.00,0.93
5816.00,0.93
5814.00,0.93
5812.00,0.93
5810.00,0.93
5808.00,0.93
5806.00,0.93
5804.00,0.93
5802.00,0.93
5800.00,0.93
5798.00,0.93
5796.00,0.93
5794.00,0.93
5792.00,0.93
5790.00,0.93
5788.00,0.93
5786.00,0.92
5784.00,0.92
5782.00,0.92
5780.00,0.92
5778.00,0.92
5776.00,0.92
5774.00,0.92
5772.00,0.92
5770.00,0.92
5768.00,0.92
5766.00,0.92
5764.00,0.92
5762.00,0.92
5760.00,0.92
5758.00,0.92
5756.00,0.93
5754.00,0.93
5752.00,0.93
5750.00,0.93
5748.00,0.93
5746.00,0.93
5744.00,0.93
5742.00,0.93
5740.00,0.93
5738.00,0.93
5736.00,0.93
5734.00,0.93
5732.00,0.93
5730.00,0.93
5728.00,0.93
5726.00,0.93
5724.00,0.93
5722.00,0.93
5720.00,0.93
5718.00,0.94
5716.00,0.94
5714.00,0.94
5712.00,0.94
5710.00,0.94
5708.00,0.94
5706.00,0.94
5704.00,0.94
5702.00,0.94
5700.00,0.94
5698.00,0.94
5696.00,0.94
5694.00,0.94
5692.00,0.94
5690.00,0.94
5688.00,0.94
5686.00,0.94
5684.00,0.94
5682.00,0.94
5680.00,0.94
5678.00,0.94
5676.00,0.94
5674.00,0.94
5672.00,0.94
5670.00,0.94
5668.00,0.94
5666.00,0.94
5664.00,0.94
5662.00,0.94
5660.00,0.94
5658.00,0.94
5656.00,0.94
5654.00,0.94
5652.00,0.94
5650.00,0.94
5648.00,0.94
5646.00,0.94
5644.00,0.94
5642.00,0.94
5640.00,0.94
5638.00,0.94
5636.00,0.94
5634.00,0.94
5632.00,0.94
5630.00,0.94
5628.00,0.95
5626.00,0.95
5624.00,0.95
5622.00,0.95
5620.00,0.95
5618.00,0.95
5616.00,0.95
5614.00,0.95
5612.00,0.95
5610.00,0.95
5608.00,0.95
5606.00,0.95
5604.00,0.95
5602.00,0.95
5600.00,0.95
5598.00,0.95
5596.00,0.95
5594.00,0.95
5592.00,0.95
5590.00,0.95
5588.00,0.96
5586.00,0.96
5584.00,0.96
5582.00,0.96
5580.00,0.96
5578.00,0.96
5576.00,0.96
5574.00,0.96
5572.00,0.96
5570.00,0.96
5568.00,0.96
5566.00,0.96
5564.00,0.96
5562.00,0.96
5560.00,0.96
5558.00,0.96
5556.00,0.96
5554.00,0.96
5552.00,0.96
5550.00,0.96
5548.00,0.96
5546.00,0.96
5544.00,0.96
5542.00,0.96
5540.00,0.96
5538.00,0.97
5536.00,0.97
5534.00,0.97
5532.00,0.96
5530.00,0.96
5528.00,0.96
5526.00,0.96
5524.00,0.96
5522.00,0.96
5520.00,0.96
5518.00,0.96
5516.00,0.96
5514.00,0.96
5512.00,0.96
5510.00,0.96
5508.00,0.96
5506.00,0.96
5504.00,0.96
5502.00,0.96
5500.00,0.96
5498.00,0.96
5496.00,0.96
5494.00,0.96
5492.00,0.96
5490.00,0.96
5488.00,0.96
5486.00,0.96
5484.00,0.96
5482.00,0.96
5480.00,0.96
5478.00,0.96
5476.00,0.96
5474.00,0.96
5472.00,0.96
5470.00,0.96
5468.00,0.96
5466.00,0.96
5464.00,0.96
5462.00,0.96
5460.00,0.97
5458.00,0.97
5456.00,0.97
5454.00,0.97
5452.00,0.97
5450.00,0.97
5448.00,0.97
5446.00,0.97
5444.00,0.96
5442.00,0.96
5440.00,0.96
5438.00,0.96
5436.00,0.96
5434.00,0.96
5432.00,0.96
5430.00,0.97
5428.00,0.97
5426.00,0.97
5424.00,0.97
5422.00,0.97
5420.00,0.97
5418.00,0.97
5416.00,0.97
5414.00,0.97
5412.00,0.97
5410.00,0.97
5408.00,0.97
5406.00,0.97
5404.00,0.97
5402.00,0.97
5400.00,0.97
5398.00,0.97
5396.00,0.97
5394.00,0.97
5392.00,0.97
5390.00,0.97
5388.00,0.97
5386.00,0.97
5384.00,0.97
5382.00,0.97
5380.00,0.97
5378.00,0.97
5376.00,0.97
5374.00,0.97
5372.00,0.97
5370.00,0.96
5368.00,0.96
5366.00,0.96
5364.00,0.96
5362.00,0.96
5360.00,0.96
5358.00,0.96
5356.00,0.96
5354.00,0.95
5352.00,0.95
5350.00,0.95
5348.00,0.95
5346.00,0.95
5344.00,0.94
5342.00,0.94
5340.00,0.94
5338.00,0.94
5336.00,0.94
5334.00,0.94
5332.00,0.93
5330.00,0.93
5328.00,0.93
5326.00,0.93
5324.00,0.92
5322.00,0.92
5320.00,0.92
5318.00,0.91
5316.00,0.91
5314.00,0.90
5312.00,0.90
5310.00,0.89
5308.00,0.89
5306.00,0.88
5304.00,0.88
5302.00,0.88
5300.00,0.87
5298.00,0.87
5296.00,0.86
5294.00,0.86
5292.00,0.86
5290.00,0.85
5288.00,0.85
5286.00,0.85
5284.00,0.84
5282.00,0.84
5280.00,0.84
5278.00,0.83
5276.00,0.83
5274.00,0.83
5272.00,0.83
5270.00,0.82
5268.00,0.82
5266.00,0.82
5264.00,0.82
5262.00,0.81
5260.00,0.81
5258.00,0.81
5256.00,0.81
5254.00,0.81
5252.00,0.80
5250.00,0.80
5248.00,0.80
5246.00,0.80
5244.00,0.79
5242.00,0.79
5240.00,0.79
5238.00,0.79
5236.00,0.79
5234.00,0.78
5232.00,0.78
5230.00,0.78
5228.00,0.78
5226.00,0.78
5224.00,0.78
5222.00,0.77
5220.00,0.77
5218.00,0.77
5216.00,0.77
5214.00,0.77
5212.00,0.77
5210.00,0.76
5208.00,0.76
5206.00,0.76
5204.00,0.76
5202.00,0.76
5200.00,0.76
5198.00,0.76
5196.00,0.76
5194.00,0.76
5192.00,0.76
5190.00,0.76
5188.00,0.75
5186.00,0.75
5184.00,0.75
5182.00,0.75
5180.00,0.75
5178.00,0.75
5176.00,0.75
5174.00,0.75
5172.00,0.75
5170.00,0.75
5168.00,0.75
5166.00,0.75
5164.00,0.75
5162.00,0.75
5160.00,0.75
5158.00,0.75
5156.00,0.75
5154.00,0.75
5152.00,0.75
5150.00,0.76
5148.00,0.76
5146.00,0.76
5144.00,0.76
5142.00,0.76
5140.00,0.76
5138.00,0.76
5136.00,0.77
5134.00,0.77
5132.00,0.77
5130.00,0.77
5128.00,0.77
5126.00,0.77
5124.00,0.77
5122.00,0.77
5120.00,0.77
5118.00,0.77
5116.00,0.78
5114.00,0.78
5112.00,0.78
5110.00,0.78
5108.00,0.78
5106.00,0.78
5104.00,0.78
5102.00,0.78
5100.00,0.79
5098.00,0.79
5096.00,0.79
5094.00,0.79
5092.00,0.79
5090.00,0.79
5088.00,0.79
5086.00,0.80
5084.00,0.80
5082.00,0.80
5080.00,0.80
5078.00,0.80
5076.00,0.80
5074.00,0.81
5072.00,0.81
5070.00,0.81
5068.00,0.81
5066.00,0.81
5064.00,0.81
5062.00,0.82
5060.00,0.82
5058.00,0.82
5056.00,0.82
5054.00,0.82
5052.00,0.82
5050.00,0.82
5048.00,0.82
5046.00,0.83
5044.00,0.83
5042.00,0.83
5040.00,0.83
5038.00,0.83
5036.00,0.84
5034.00,0.84
5032.00,0.84
5030.00,0.84
5028.00,0.84
5026.00,0.85
5024.00,0.85
5022.00,0.85
5020.00,0.85
5018.00,0.85
5016.00,0.85
5014.00,0.85
5012.00,0.85
5010.00,0.85
5008.00,0.86
5006.00,0.86
5004.00,0.86
5002.00,0.86
5000.00,0.86
4998.00,0.86
4996.00,0.86
4994.00,0.86
4992.00,0.86
4990.00,0.87
4988.00,0.87
4986.00,0.87
4984.00,0.87
4982.00,0.87
4980.00,0.87
4978.00,0.87
4976.00,0.87
4974.00,0.87
4972.00,0.87
4970.00,0.88
4968.00,0.88
4966.00,0.88
4964.00,0.88
4962.00,0.88
4960.00,0.88
4958.00,0.88
4956.00,0.88
4954.00,0.88
4952.00,0.88
4950.00,0.88
4948.00,0.88
4946.00,0.88
4944.00,0.89
4942.00,0.89
4940.00,0.89
4938.00,0.89
4936.00,0.89
4934.00,0.89
4932.00,0.89
4930.00,0.89
4928.00,0.89
4926.00,0.89
4924.00,0.89
4922.00,0.89
4920.00,0.89
4918.00,0.89
4916.00,0.89
4914.00,0.89
4912.00,0.89
4910.00,0.89
4908.00,0.89
4906.00,0.89
4904.00,0.89
4902.00,0.89
4900.00,0.89
4898.00,0.89
4896.00,0.89
4894.00,0.89
4892.00,0.89
4890.00,0.89
4888.00,0.89
4886.00,0.89
4884.00,0.89
4882.00,0.89
4880.00,0.89
4878.00,0.89
4876.00,0.89
4874.00,0.89
4872.00,0.89
4870.00,0.89
4868.00,0.89
4866.00,0.89
4864.00,0.89
4862.00,0.89
4860.00,0.89
4858.00,0.90
4856.00,0.90
4854.00,0.90
4852.00,0.90
4850.00,0.90
4848.00,0.90
4846.00,0.90
4844.00,0.90
4842.00,0.90
4840.00,0.90
4838.00,0.90
4836.00,0.90
4834.00,0.90
4832.00,0.90
4830.00,0.90
4828.00,0.90
4826.00,0.90
4824.00,0.90
4822.00,0.90
4820.00,0.90
4818.00,0.90
4816.00,0.90
4814.00,0.91
4812.00,0.91
4810.00,0.91
4808.00,0.91
4806.00,0.91
4804.00,0.91
4802.00,0.91
4800.00,0.91
4798.00,0.91
4796.00,0.91
4794.00,0.91
4792.00,0.91
4790.00,0.92
4788.00,0.92
4786.00,0.92
4784.00,0.92
4782.00,0.92
4780.00,0.92
4778.00,0.92
4776.00,0.92
4774.00,0.92
4772.00,0.92
4770.00,0.92
4768.00,0.92
4766.00,0.92
4764.00,0.92
4762.00,0.92
4760.00,0.92
4758.00,0.92
4756.00,0.92
4754.00,0.92
4752.00,0.92
4750.00,0.92
4748.00,0.92
4746.00,0.93
4744.00,0.93
4742.00,0.93
4740.00,0.93
4738.00,0.93
4736.00,0.93
4734.00,0.93
4732.00,0.93
4730.00,0.93
4728.00,0.94
4726.00,0.94
4724.00,0.94
4722.00,0.94
4720.00,0.94
4718.00,0.94
4716.00,0.94
4714.00,0.94
4712.00,0.94
4710.00,0.94
4708.00,0.94
4706.00,0.94
4704.00,0.94
4702.00,0.94
4700.00,0.94
4698.00,0.94
4696.00,0.94
4694.00,0.95
4692.00,0.95
4690.00,0.95
4688.00,0.95
4686.00,0.95
4684.00,0.95
4682.00,0.95
4680.00,0.95
4678.00,0.95
4676.00,0.95
4674.00,0.95
4672.00,0.95
4670.00,0.95
4668.00,0.95
4666.00,0.95
4664.00,0.95
4662.00,0.95
4660.00,0.95
4658.00,0.96
4656.00,0.96
4654.00,0.96
4652.00,0.96
4650.00,0.96
4648.00,0.96
4646.00,0.96
4644.00,0.96
4642.00,0.96
4640.00,0.96
4638.00,0.96
4636.00,0.96
4634.00,0.96
4632.00,0.96
4630.00,0.96
4628.00,0.97
4626.00,0.97
4624.00,0.97
4622.00,0.97
4620.00,0.97
4618.00,0.97
4616.00,0.96
4614.00,0.96
4612.00,0.96
4610.00,0.96
4608.00,0.96
4606.00,0.96
4604.00,0.96
4602.00,0.96
4600.00,0.96
4598.00,0.96
4596.00,0.96
4594.00,0.96
4592.00,0.96
4590.00,0.96
4588.00,0.96
4586.00,0.96
4584.00,0.96
4582.00,0.96
4580.00,0.96
4578.00,0.96
4576.00,0.96
4574.00,0.97
4572.00,0.97
4570.00,0.97
4568.00,0.97
4566.00,0.97
4564.00,0.97
4562.00,0.97
4560.00,0.97
4558.00,0.97
4556.00,0.97
4554.00,0.97
4552.00,0.97
4550.00,0.97
4548.00,0.97
4546.00,0.97
4544.00,0.97
4542.00,0.97
4540.00,0.97
4538.00,0.97
4536.00,0.97
4534.00,0.97
4532.00,0.97
4530.00,0.97
4528.00,0.97
4526.00,0.97
4524.00,0.97
4522.00,0.97
4520.00,0.97
4518.00,0.97
4516.00,0.97
4514.00,0.97
4512.00,0.97
4510.00,0.97
4508.00,0.97
4506.00,0.97
4504.00,0.97
4502.00,0.97
4500.00,0.97
4498.00,0.97
4496.00,0.97
4494.00,0.97
4492.00,0.97
4490.00,0.97
4488.00,0.97
4486.00,0.97
4484.00,0.97
4482.00,0.97
4480.00,0.97
4478.00,0.97
4476.00,0.97
4474.00,0.97
4472.00,0.97
4470.00,0.97
4468.00,0.97
4466.00,0.96
4464.00,0.96
4462.00,0.96
4460.00,0.96
4458.00,0.96
4456.00,0.96
4454.00,0.95
4452.00,0.95
4450.00,0.95
4448.00,0.95
4446.00,0.94
4444.00,0.94
4442.00,0.94
4440.00,0.93
4438.00,0.93
4436.00,0.93
4434.00,0.92
4432.00,0.91
4430.00,0.91
4428.00,0.90
4426.00,0.90
4424.00,0.89
4422.00,0.89
4420.00,0.88
4418.00,0.88
4416.00,0.87
4414.00,0.87
4412.00,0.87
4410.00,0.87
4408.00,0.87
4406.00,0.87
4404.00,0.87
4402.00,0.87
4400.00,0.87
4398.00,0.87
4396.00,0.87
4394.00,0.88
4392.00,0.88
4390.00,0.88
4388.00,0.89
4386.00,0.89
4384.00,0.89
4382.00,0.89
4380.00,0.90
4378.00,0.90
4376.00,0.90
4374.00,0.90
4372.00,0.91
4370.00,0.91
4368.00,0.91
4366.00,0.91
4364.00,0.91
4362.00,0.90
4360.00,0.90
4358.00,0.90
4356.00,0.89
4354.00,0.89
4352.00,0.89
4350.00,0.88
4348.00,0.88
4346.00,0.88
4344.00,0.87
4342.00,0.87
4340.00,0.87
4338.00,0.87
4336.00,0.87
4334.00,0.87
4332.00,0.87
4330.00,0.88
4328.00,0.88
4326.00,0.89
4324.00,0.89
4322.00,0.90
4320.00,0.90
4318.00,0.91
4316.00,0.91
4314.00,0.92
4312.00,0.92
4310.00,0.93
4308.00,0.93
4306.00,0.94
4304.00,0.94
4302.00,0.94
4300.00,0.94
4298.00,0.95
4296.00,0.95
4294.00,0.95
4292.00,0.96
4290.00,0.96
4288.00,0.96
4286.00,0.96
4284.00,0.96
4282.00,0.96
4280.00,0.96
4278.00,0.96
4276.00,0.96
4274.00,0.96
4272.00,0.96
4270.00,0.96
4268.00,0.95
4266.00,0.95
4264.00,0.95
4262.00,0.95
4260.00,0.94
4258.00,0.94
4256.00,0.94
4254.00,0.94
4252.00,0.94
4250.00,0.94
4248.00,0.94
4246.00,0.95
4244.00,0.95
4242.00,0.95
4240.00,0.96
4238.00,0.96
4236.00,0.96
4234.00,0.97
4232.00,0.97
4230.00,0.97
4228.00,0.97
4226.00,0.97
4224.00,0.97
4222.00,0.97
4220.00,0.97
4218.00,0.97
4216.00,0.97
4214.00,0.97
4212.00,0.97
4210.00,0.97
4208.00,0.97
4206.00,0.97
4204.00,0.97
4202.00,0.97
4200.00,0.97
4198.00,0.97
4196.00,0.97
4194.00,0.97
4192.00,0.97
4190.00,0.97
4188.00,0.97
4186.00,0.97
4184.00,0.97
4182.00,0.97
4180.00,0.97
4178.00,0.97
4176.00,0.97
4174.00,0.97
4172.00,0.97
4170.00,0.97
4168.00,0.97
4166.00,0.96
4164.00,0.96
4162.00,0.96
4160.00,0.96
4158.00,0.96
4156.00,0.96
4154.00,0.96
4152.00,0.96
4150.00,0.96
4148.00,0.96
4146.00,0.97
4144.00,0.97
4142.00,0.97
4140.00,0.97
4138.00,0.97
4136.00,0.97
4134.00,0.97
4132.00,0.97
4130.00,0.97
4128.00,0.97
4126.00,0.97
4124.00,0.97
4122.00,0.97
4120.00,0.97
4118.00,0.97
4116.00,0.97
4114.00,0.96
4112.00,0.96
4110.00,0.96
4108.00,0.96
4106.00,0.96
4104.00,0.96
4102.00,0.96
4100.00,0.96
4098.00,0.96
4096.00,0.96
4094.00,0.96
4092.00,0.96
4090.00,0.96
4088.00,0.96
4086.00,0.96
4084.00,0.96
4082.00,0.96
4080.00,0.95
4078.00,0.95
4076.00,0.95
4074.00,0.95
4072.00,0.94
4070.00,0.94
4068.00,0.94
4066.00,0.94
4064.00,0.94
4062.00,0.94
4060.00,0.94
4058.00,0.94
4056.00,0.94
4054.00,0.94
4052.00,0.95
4050.00,0.95
4048.00,0.95
4046.00,0.95
4044.00,0.95
4042.00,0.96
4040.00,0.96
4038.00,0.96
4036.00,0.95
4034.00,0.95
4032.00,0.95
4030.00,0.95
4028.00,0.95
4026.00,0.95
4024.00,0.96
4022.00,0.96
4020.00,0.96
4018.00,0.97
4016.00,0.97
4014.00,0.97
4012.00,0.97
4010.00,0.97
4008.00,0.97
4006.00,0.97
4004.00,0.97
4002.00,0.97
4000.00,0.97
