创建为新数据集,样品 1596 用户 Administrator 日期 星期日, 三月 12 2017
cm-1,%T
10000.00,0.92
9998.00,0.92
9996.00,0.91
9994.00,0.91
9992.00,0.91
9990.00,0.91
9988.00,0.91
9986.00,0.91
9984.00,0.91
9982.00,0.91
9980.00,0.91
9978.00,0.91
9976.00,0.91
9974.00,0.92
9972.00,0.92
9970.00,0.92
9968.00,0.93
9966.00,0.93
9964.00,0.93
9962.00,0.92
9960.00,0.92
9958.00,0.91
9956.00,0.90
9954.00,0.89
9952.00,0.89
9950.00,0.88
9948.00,0.88
9946.00,0.88
9944.00,0.88
9942.00,0.88
9940.00,0.88
9938.00,0.89
9936.00,0.89
9934.00,0.90
9932.00,0.90
9930.00,0.90
9928.00,0.90
9926.00,0.90
9924.00,0.90
9922.00,0.89
9920.00,0.89
9918.00,0.88
9916.00,0.88
9914.00,0.87
9912.00,0.87
9910.00,0.87
9908.00,0.87
9906.00,0.87
9904.00,0.88
9902.00,0.88
9900.00,0.89
9898.00,0.90
9896.00,0.90
9894.00,0.91
9892.00,0.91
9890.00,0.91
9888.00,0.91
9886.00,0.91
9884.00,0.90
9882.00,0.90
9880.00,0.89
9878.00,0.89
9876.00,0.88
9874.00,0.88
9872.00,0.88
9870.00,0.87
9868.00,0.87
9866.00,0.87
9864.00,0.87
9862.00,0.87
9860.00,0.87
9858.00,0.88
9856.00,0.88
9854.00,0.88
9852.00,0.88
9850.00,0.88
9848.00,0.89
9846.00,0.89
9844.00,0.89
9842.00,0.89
9840.00,0.90
9838.00,0.90
9836.00,0.90
9834.00,0.91
9832.00,0.91
9830.00,0.91
9828.00,0.90
9826.00,0.90
9824.00,0.89
9822.00,0.89
9820.00,0.88
9818.00,0.88
9816.00,0.87
9814.00,0.88
9812.00,0.88
9810.00,0.88
9808.00,0.89
9806.00,0.89
9804.00,0.90
9802.00,0.90
9800.00,0.90
9798.00,0.90
9796.00,0.90
9794.00,0.90
9792.00,0.90
9790.00,0.89
9788.00,0.89
9786.00,0.89
9784.00,0.89
9782.00,0.89
9780.00,0.89
9778.00,0.89
9776.00,0.89
9774.00,0.89
9772.00,0.89
9770.00,0.89
9768.00,0.89
9766.00,0.89
9764.00,0.88
9762.00,0.88
9760.00,0.88
9758.00,0.88
9756.00,0.88
9754.00,0.89
9752.00,0.89
9750.00,0.89
9748.00,0.90
9746.00,0.90
9744.00,0.90
9742.00,0.90
9740.00,0.90
9738.00,0.90
9736.00,0.89
9734.00,0.89
9732.00,0.89
9730.00,0.88
9728.00,0.88
9726.00,0.88
9724.00,0.88
9722.00,0.88
9720.00,0.89
9718.00,0.89
9716.00,0.90
9714.00,0.90
9712.00,0.90
9710.00,0.91
9708.00,0.90
9706.00,0.90
9704.00,0.90
9702.00,0.90
9700.00,0.89
9698.00,0.89
9696.00,0.89
9694.00,0.89
9692.00,0.90
9690.00,0.90
9688.00,0.90
9686.00,0.90
9684.00,0.90
9682.00,0.90
9680.00,0.90
9678.00,0.89
9676.00,0.89
9674.00,0.89
9672.00,0.89
9670.00,0.89
9668.00,0.89
9666.00,0.89
9664.00,0.89
9662.00,0.90
9660.00,0.90
9658.00,0.90
9656.00,0.91
9654.00,0.91
9652.00,0.90
9650.00,0.90
9648.00,0.89
9646.00,0.89
9644.00,0.88
9642.00,0.88
9640.00,0.88
9638.00,0.88
9636.00,0.88
9634.00,0.88
9632.00,0.88
9630.00,0.88
9628.00,0.88
9626.00,0.88
9624.00,0.88
9622.00,0.88
9620.00,0.88
9618.00,0.88
9616.00,0.88
9614.00,0.89
9612.00,0.89
9610.00,0.90
9608.00,0.90
9606.00,0.90
9604.00,0.90
9602.00,0.90
9600.00,0.90
9598.00,0.89
9596.00,0.89
9594.00,0.89
9592.00,0.89
9590.00,0.90
9588.00,0.90
9586.00,0.90
9584.00,0.90
9582.00,0.90
9580.00,0.91
9578.00,0.91
9576.00,0.91
9574.00,0.91
9572.00,0.91
9570.00,0.91
9568.00,0.90
9566.00,0.90
9564.00,0.89
9562.00,0.88
9560.00,0.88
9558.00,0.88
9556.00,0.88
9554.00,0.88
9552.00,0.88
9550.00,0.89
9548.00,0.89
9546.00,0.89
9544.00,0.90
9542.00,0.90
9540.00,0.90
9538.00,0.89
9536.00,0.89
9534.00,0.89
9532.00,0.89
9530.00,0.89
9528.00,0.89
9526.00,0.90
9524.00,0.90
9522.00,0.91
9520.00,0.91
9518.00,0.92
9516.00,0.92
9514.00,0.92
9512.00,0.92
9510.00,0.92
9508.00,0.91
9506.00,0.91
9504.00,0.90
9502.00,0.90
9500.00,0.89
9498.00,0.89
9496.00,0.89
9494.00,0.89
9492.00,0.89
9490.00,0.89
9488.00,0.89
9486.00,0.90
9484.00,0.90
9482.00,0.90
9480.00,0.90
9478.00,0.90
9476.00,0.90
9474.00,0.90
9472.00,0.90
9470.00,0.90
9468.00,0.90
9466.00,0.90
9464.00,0.89
9462.00,0.89
9460.00,0.89
9458.00,0.89
9456.00,0.89
9454.00,0.89
9452.00,0.89
9450.00,0.89
9448.00,0.89
9446.00,0.89
9444.00,0.89
9442.00,0.89
9440.00,0.89
9438.00,0.89
9436.00,0.89
9434.00,0.89
9432.00,0.90
9430.00,0.90
9428.00,0.90
9426.00,0.90
9424.00,0.91
9422.00,0.91
9420.00,0.91
9418.00,0.91
9416.00,0.91
9414.00,0.91
9412.00,0.90
9410.00,0.90
9408.00,0.89
9406.00,0.88
9404.00,0.88
9402.00,0.88
9400.00,0.88
9398.00,0.88
9396.00,0.89
9394.00,0.90
9392.00,0.90
9390.00,0.91
9388.00,0.91
9386.00,0.91
9384.00,0.91
9382.00,0.91
9380.00,0.91
9378.00,0.90
9376.00,0.89
9374.00,0.89
9372.00,0.88
9370.00,0.88
9368.00,0.88
9366.00,0.87
9364.00,0.87
9362.00,0.87
9360.00,0.88
9358.00,0.88
9356.00,0.88
9354.00,0.88
9352.00,0.89
9350.00,0.89
9348.00,0.90
9346.00,0.90
9344.00,0.91
9342.00,0.91
9340.00,0.91
9338.00,0.91
9336.00,0.91
9334.00,0.91
9332.00,0.90
9330.00,0.90
9328.00,0.90
9326.00,0.90
9324.00,0.90
9322.00,0.90
9320.00,0.90
9318.00,0.90
9316.00,0.90
9314.00,0.90
9312.00,0.90
9310.00,0.90
9308.00,0.90
9306.00,0.90
9304.00,0.90
9302.00,0.90
9300.00,0.90
9298.00,0.90
9296.00,0.90
9294.00,0.89
9292.00,0.89
9290.00,0.89
9288.00,0.89
9286.00,0.89
9284.00,0.89
9282.00,0.89
9280.00,0.89
9278.00,0.89
9276.00,0.89
9274.00,0.90
9272.00,0.90
9270.00,0.90
9268.00,0.90
9266.00,0.90
9264.00,0.90
9262.00,0.89
9260.00,0.89
9258.00,0.89
9256.00,0.88
9254.00,0.88
9252.00,0.88
9250.00,0.88
9248.00,0.88
9246.00,0.89
9244.00,0.89
9242.00,0.89
9240.00,0.89
9238.00,0.89
9236.00,0.89
9234.00,0.89
9232.00,0.89
9230.00,0.89
9228.00,0.89
9226.00,0.89
9224.00,0.89
9222.00,0.90
9220.00,0.91
9218.00,0.91
9216.00,0.92
9214.00,0.92
9212.00,0.92
9210.00,0.92
9208.00,0.92
9206.00,0.92
9204.00,0.92
9202.00,0.92
9200.00,0.92
9198.00,0.92
9196.00,0.91
9194.00,0.91
9192.00,0.91
9190.00,0.91
9188.00,0.91
9186.00,0.90
9184.00,0.90
9182.00,0.90
9180.00,0.89
9178.00,0.89
9176.00,0.89
9174.00,0.88
9172.00,0.88
9170.00,0.88
9168.00,0.88
9166.00,0.88
9164.00,0.88
9162.00,0.88
9160.00,0.88
9158.00,0.88
9156.00,0.88
9154.00,0.87
9152.00,0.87
9150.00,0.87
9148.00,0.87
9146.00,0.88
9144.00,0.88
9142.00,0.88
9140.00,0.89
9138.00,0.89
9136.00,0.90
9134.00,0.90
9132.00,0.90
9130.00,0.90
9128.00,0.90
9126.00,0.90
9124.00,0.90
9122.00,0.90
9120.00,0.90
9118.00,0.90
9116.00,0.90
9114.00,0.90
9112.00,0.90
9110.00,0.90
9108.00,0.89
9106.00,0.89
9104.00,0.89
9102.00,0.89
9100.00,0.89
9098.00,0.90
9096.00,0.90
9094.00,0.90
9092.00,0.90
9090.00,0.90
9088.00,0.90
9086.00,0.90
9084.00,0.90
9082.00,0.90
9080.00,0.90
9078.00,0.90
9076.00,0.90
9074.00,0.90
9072.00,0.89
9070.00,0.89
9068.00,0.89
9066.00,0.88
9064.00,0.88
9062.00,0.88
9060.00,0.87
9058.00,0.87
9056.00,0.88
9054.00,0.88
9052.00,0.88
9050.00,0.89
9048.00,0.89
9046.00,0.89
9044.00,0.89
9042.00,0.89
9040.00,0.88
9038.00,0.88
9036.00,0.88
9034.00,0.88
9032.00,0.88
9030.00,0.89
9028.00,0.89
9026.00,0.89
9024.00,0.89
9022.00,0.90
9020.00,0.90
9018.00,0.90
9016.00,0.90
9014.00,0.90
9012.00,0.90
9010.00,0.90
9008.00,0.89
9006.00,0.89
9004.00,0.89
9002.00,0.89
9000.00,0.89
8998.00,0.89
8996.00,0.90
8994.00,0.90
8992.00,0.90
8990.00,0.91
8988.00,0.91
8986.00,0.91
8984.00,0.91
8982.00,0.91
8980.00,0.91
8978.00,0.91
8976.00,0.91
8974.00,0.91
8972.00,0.91
8970.00,0.90
8968.00,0.90
8966.00,0.90
8964.00,0.90
8962.00,0.90
8960.00,0.90
8958.00,0.89
8956.00,0.89
8954.00,0.89
8952.00,0.89
8950.00,0.89
8948.00,0.89
8946.00,0.89
8944.00,0.89
8942.00,0.89
8940.00,0.89
8938.00,0.89
8936.00,0.89
8934.00,0.89
8932.00,0.89
8930.00,0.89
8928.00,0.89
8926.00,0.89
8924.00,0.90
8922.00,0.90
8920.00,0.90
8918.00,0.90
8916.00,0.90
8914.00,0.90
8912.00,0.90
8910.00,0.90
8908.00,0.90
8906.00,0.90
8904.00,0.89
8902.00,0.89
8900.00,0.88
8898.00,0.88
8896.00,0.88
8894.00,0.88
8892.00,0.88
8890.00,0.88
8888.00,0.88
8886.00,0.88
8884.00,0.89
8882.00,0.89
8880.00,0.89
8878.00,0.89
8876.00,0.89
8874.00,0.89
8872.00,0.89
8870.00,0.89
8868.00,0.88
8866.00,0.88
8864.00,0.88
8862.00,0.88
8860.00,0.87
8858.00,0.87
8856.00,0.87
8854.00,0.88
8852.00,0.88
8850.00,0.88
8848.00,0.88
8846.00,0.89
8844.00,0.89
8842.00,0.89
8840.00,0.89
8838.00,0.89
8836.00,0.89
8834.00,0.89
8832.00,0.89
8830.00,0.89
8828.00,0.89
8826.00,0.88
8824.00,0.88
8822.00,0.88
8820.00,0.88
8818.00,0.88
8816.00,0.88
8814.00,0.88
8812.00,0.88
8810.00,0.88
8808.00,0.88
8806.00,0.88
8804.00,0.88
8802.00,0.88
8800.00,0.88
8798.00,0.88
8796.00,0.89
8794.00,0.89
8792.00,0.89
8790.00,0.90
8788.00,0.90
8786.00,0.90
8784.00,0.90
8782.00,0.91
8780.00,0.91
8778.00,0.91
8776.00,0.91
8774.00,0.90
8772.00,0.90
8770.00,0.90
8768.00,0.90
8766.00,0.89
8764.00,0.89
8762.00,0.89
8760.00,0.89
8758.00,0.89
8756.00,0.89
8754.00,0.89
8752.00,0.89
8750.00,0.89
8748.00,0.89
8746.00,0.89
8744.00,0.89
8742.00,0.89
8740.00,0.89
8738.00,0.89
8736.00,0.90
8734.00,0.90
8732.00,0.90
8730.00,0.90
8728.00,0.90
8726.00,0.90
8724.00,0.90
8722.00,0.90
8720.00,0.90
8718.00,0.90
8716.00,0.90
8714.00,0.90
8712.00,0.90
8710.00,0.91
8708.00,0.91
8706.00,0.91
8704.00,0.91
8702.00,0.91
8700.00,0.91
8698.00,0.91
8696.00,0.91
8694.00,0.90
8692.00,0.90
8690.00,0.90
8688.00,0.90
8686.00,0.90
8684.00,0.90
8682.00,0.91
8680.00,0.91
8678.00,0.90
8676.00,0.90
8674.00,0.90
8672.00,0.89
8670.00,0.89
8668.00,0.89
8666.00,0.88
8664.00,0.88
8662.00,0.88
8660.00,0.88
8658.00,0.88
8656.00,0.89
8654.00,0.89
8652.00,0.89
8650.00,0.89
8648.00,0.89
8646.00,0.89
8644.00,0.89
8642.00,0.89
8640.00,0.88
8638.00,0.88
8636.00,0.88
8634.00,0.87
8632.00,0.87
8630.00,0.87
8628.00,0.87
8626.00,0.87
8624.00,0.87
8622.00,0.88
8620.00,0.88
8618.00,0.89
8616.00,0.89
8614.00,0.89
8612.00,0.89
8610.00,0.89
8608.00,0.89
8606.00,0.89
8604.00,0.89
8602.00,0.89
8600.00,0.89
8598.00,0.89
8596.00,0.89
8594.00,0.89
8592.00,0.89
8590.00,0.88
8588.00,0.88
8586.00,0.88
8584.00,0.88
8582.00,0.88
8580.00,0.88
8578.00,0.89
8576.00,0.89
8574.00,0.89
8572.00,0.89
8570.00,0.89
8568.00,0.89
8566.00,0.89
8564.00,0.89
8562.00,0.89
8560.00,0.90
8558.00,0.90
8556.00,0.90
8554.00,0.90
8552.00,0.90
8550.00,0.90
8548.00,0.90
8546.00,0.90
8544.00,0.90
8542.00,0.90
8540.00,0.90
8538.00,0.90
8536.00,0.90
8534.00,0.89
8532.00,0.89
8530.00,0.89
8528.00,0.89
8526.00,0.89
8524.00,0.89
8522.00,0.88
8520.00,0.88
8518.00,0.88
8516.00,0.88
8514.00,0.88
8512.00,0.88
8510.00,0.88
8508.00,0.88
8506.00,0.88
8504.00,0.87
8502.00,0.87
8500.00,0.87
8498.00,0.87
8496.00,0.87
8494.00,0.88
8492.00,0.88
8490.00,0.88
8488.00,0.88
8486.00,0.89
8484.00,0.89
8482.00,0.89
8480.00,0.89
8478.00,0.89
8476.00,0.89
8474.00,0.89
8472.00,0.89
8470.00,0.89
8468.00,0.89
8466.00,0.89
8464.00,0.88
8462.00,0.88
8460.00,0.88
8458.00,0.88
8456.00,0.87
8454.00,0.87
8452.00,0.87
8450.00,0.87
8448.00,0.87
8446.00,0.88
8444.00,0.88
8442.00,0.88
8440.00,0.88
8438.00,0.89
8436.00,0.89
8434.00,0.89
8432.00,0.89
8430.00,0.89
8428.00,0.89
8426.00,0.89
8424.00,0.89
8422.00,0.88
8420.00,0.88
8418.00,0.88
8416.00,0.88
8414.00,0.88
8412.00,0.89
8410.00,0.89
8408.00,0.89
8406.00,0.89
8404.00,0.89
8402.00,0.90
8400.00,0.90
8398.00,0.90
8396.00,0.90
8394.00,0.90
8392.00,0.90
8390.00,0.90
8388.00,0.90
8386.00,0.90
8384.00,0.90
8382.00,0.89
8380.00,0.89
8378.00,0.89
8376.00,0.89
8374.00,0.89
8372.00,0.89
8370.00,0.89
8368.00,0.90
8366.00,0.90
8364.00,0.90
8362.00,0.90
8360.00,0.90
8358.00,0.90
8356.00,0.90
8354.00,0.90
8352.00,0.90
8350.00,0.90
8348.00,0.89
8346.00,0.89
8344.00,0.89
8342.00,0.89
8340.00,0.89
8338.00,0.89
8336.00,0.89
8334.00,0.89
8332.00,0.89
8330.00,0.89
8328.00,0.89
8326.00,0.89
8324.00,0.89
8322.00,0.89
8320.00,0.90
8318.00,0.89
8316.00,0.89
8314.00,0.89
8312.00,0.89
8310.00,0.89
8308.00,0.88
8306.00,0.88
8304.00,0.88
8302.00,0.88
8300.00,0.88
8298.00,0.88
8296.00,0.89
8294.00,0.89
8292.00,0.89
8290.00,0.90
8288.00,0.90
8286.00,0.90
8284.00,0.90
8282.00,0.89
8280.00,0.89
8278.00,0.89
8276.00,0.89
8274.00,0.89
8272.00,0.89
8270.00,0.89
8268.00,0.89
8266.00,0.89
8264.00,0.89
8262.00,0.89
8260.00,0.89
8258.00,0.89
8256.00,0.88
8254.00,0.88
8252.00,0.88
8250.00,0.88
8248.00,0.89
8246.00,0.89
8244.00,0.89
8242.00,0.89
8240.00,0.90
8238.00,0.90
8236.00,0.90
8234.00,0.90
8232.00,0.90
8230.00,0.90
8228.00,0.90
8226.00,0.90
8224.00,0.90
8222.00,0.90
8220.00,0.90
8218.00,0.90
8216.00,0.90
8214.00,0.90
8212.00,0.90
8210.00,0.90
8208.00,0.90
8206.00,0.90
8204.00,0.90
8202.00,0.90
8200.00,0.90
8198.00,0.90
8196.00,0.90
8194.00,0.90
8192.00,0.90
8190.00,0.90
8188.00,0.90
8186.00,0.90
8184.00,0.90
8182.00,0.90
8180.00,0.90
8178.00,0.89
8176.00,0.89
8174.00,0.89
8172.00,0.89
8170.00,0.89
8168.00,0.89
8166.00,0.89
8164.00,0.89
8162.00,0.89
8160.00,0.89
8158.00,0.89
8156.00,0.89
8154.00,0.89
8152.00,0.89
8150.00,0.89
8148.00,0.90
8146.00,0.90
8144.00,0.90
8142.00,0.90
8140.00,0.90
8138.00,0.90
8136.00,0.90
8134.00,0.90
8132.00,0.90
8130.00,0.91
8128.00,0.91
8126.00,0.91
8124.00,0.91
8122.00,0.91
8120.00,0.90
8118.00,0.90
8116.00,0.90
8114.00,0.89
8112.00,0.89
8110.00,0.89
8108.00,0.89
8106.00,0.89
8104.00,0.89
8102.00,0.89
8100.00,0.89
8098.00,0.89
8096.00,0.89
8094.00,0.89
8092.00,0.89
8090.00,0.89
8088.00,0.89
8086.00,0.89
8084.00,0.89
8082.00,0.89
8080.00,0.89
8078.00,0.90
8076.00,0.90
8074.00,0.90
8072.00,0.90
8070.00,0.90
8068.00,0.90
8066.00,0.90
8064.00,0.90
8062.00,0.90
8060.00,0.90
8058.00,0.91
8056.00,0.91
8054.00,0.91
8052.00,0.91
8050.00,0.91
8048.00,0.90
8046.00,0.90
8044.00,0.90
8042.00,0.90
8040.00,0.89
8038.00,0.89
8036.00,0.89
8034.00,0.89
8032.00,0.89
8030.00,0.90
8028.00,0.90
8026.00,0.90
8024.00,0.90
8022.00,0.90
8020.00,0.90
8018.00,0.90
8016.00,0.90
8014.00,0.90
8012.00,0.90
8010.00,0.90
8008.00,0.90
8006.00,0.90
8004.00,0.90
8002.00,0.90
8000.00,0.90
7998.00,0.90
7996.00,0.90
7994.00,0.90
7992.00,0.90
7990.00,0.89
7988.00,0.89
7986.00,0.89
7984.00,0.89
7982.00,0.89
7980.00,0.89
7978.00,0.89
7976.00,0.90
7974.00,0.90
7972.00,0.90
7970.00,0.90
7968.00,0.90
7966.00,0.90
7964.00,0.90
7962.00,0.90
7960.00,0.90
7958.00,0.90
7956.00,0.90
7954.00,0.90
7952.00,0.89
7950.00,0.89
7948.00,0.89
7946.00,0.89
7944.00,0.89
7942.00,0.89
7940.00,0.89
7938.00,0.89
7936.00,0.90
7934.00,0.90
7932.00,0.90
7930.00,0.90
7928.00,0.90
7926.00,0.90
7924.00,0.90
7922.00,0.90
7920.00,0.90
7918.00,0.90
7916.00,0.90
7914.00,0.90
7912.00,0.90
7910.00,0.90
7908.00,0.90
7906.00,0.90
7904.00,0.89
7902.00,0.89
7900.00,0.89
7898.00,0.89
7896.00,0.89
7894.00,0.89
7892.00,0.90
7890.00,0.90
7888.00,0.90
7886.00,0.90
7884.00,0.90
7882.00,0.90
7880.00,0.90
7878.00,0.90
7876.00,0.90
7874.00,0.90
7872.00,0.90
7870.00,0.90
7868.00,0.90
7866.00,0.90
7864.00,0.90
7862.00,0.90
7860.00,0.90
7858.00,0.90
7856.00,0.90
7854.00,0.90
7852.00,0.90
7850.00,0.90
7848.00,0.89
7846.00,0.89
7844.00,0.89
7842.00,0.89
7840.00,0.90
7838.00,0.90
7836.00,0.90
7834.00,0.90
7832.00,0.90
7830.00,0.90
7828.00,0.90
7826.00,0.90
7824.00,0.90
7822.00,0.90
7820.00,0.90
7818.00,0.90
7816.00,0.90
7814.00,0.90
7812.00,0.89
7810.00,0.89
7808.00,0.89
7806.00,0.90
7804.00,0.90
7802.00,0.90
7800.00,0.90
7798.00,0.90
7796.00,0.90
7794.00,0.90
7792.00,0.90
7790.00,0.91
7788.00,0.91
7786.00,0.91
7784.00,0.91
7782.00,0.91
7780.00,0.90
7778.00,0.90
7776.00,0.90
7774.00,0.90
7772.00,0.90
7770.00,0.90
7768.00,0.90
7766.00,0.89
7764.00,0.89
7762.00,0.89
7760.00,0.89
7758.00,0.89
7756.00,0.89
7754.00,0.89
7752.00,0.89
7750.00,0.89
7748.00,0.89
7746.00,0.89
7744.00,0.90
7742.00,0.90
7740.00,0.90
7738.00,0.90
7736.00,0.90
7734.00,0.90
7732.00,0.90
7730.00,0.90
7728.00,0.90
7726.00,0.90
7724.00,0.90
7722.00,0.90
7720.00,0.90
7718.00,0.90
7716.00,0.90
7714.00,0.90
7712.00,0.90
7710.00,0.91
7708.00,0.91
7706.00,0.91
7704.00,0.91
7702.00,0.91
7700.00,0.91
7698.00,0.91
7696.00,0.91
7694.00,0.91
7692.00,0.91
7690.00,0.91
7688.00,0.91
7686.00,0.91
7684.00,0.90
7682.00,0.90
7680.00,0.90
7678.00,0.90
7676.00,0.90
7674.00,0.90
7672.00,0.90
7670.00,0.90
7668.00,0.90
7666.00,0.90
7664.00,0.90
7662.00,0.90
7660.00,0.90
7658.00,0.90
7656.00,0.90
7654.00,0.90
7652.00,0.90
7650.00,0.90
7648.00,0.90
7646.00,0.90
7644.00,0.90
7642.00,0.90
7640.00,0.90
7638.00,0.91
7636.00,0.91
7634.00,0.91
7632.00,0.91
7630.00,0.91
7628.00,0.91
7626.00,0.91
7624.00,0.91
7622.00,0.91
7620.00,0.91
7618.00,0.91
7616.00,0.91
7614.00,0.91
7612.00,0.90
7610.00,0.90
7608.00,0.90
7606.00,0.90
7604.00,0.90
7602.00,0.90
7600.00,0.90
7598.00,0.90
7596.00,0.90
7594.00,0.90
7592.00,0.90
7590.00,0.91
7588.00,0.91
7586.00,0.91
7584.00,0.91
7582.00,0.91
7580.00,0.91
7578.00,0.91
7576.00,0.91
7574.00,0.90
7572.00,0.90
7570.00,0.90
7568.00,0.90
7566.00,0.90
7564.00,0.90
7562.00,0.90
7560.00,0.90
7558.00,0.90
7556.00,0.90
7554.00,0.90
7552.00,0.90
7550.00,0.90
7548.00,0.90
7546.00,0.90
7544.00,0.90
7542.00,0.90
7540.00,0.90
7538.00,0.90
7536.00,0.90
7534.00,0.90
7532.00,0.90
7530.00,0.90
7528.00,0.91
7526.00,0.91
7524.00,0.91
7522.00,0.91
7520.00,0.91
7518.00,0.91
7516.00,0.91
7514.00,0.91
7512.00,0.91
7510.00,0.91
7508.00,0.91
7506.00,0.91
7504.00,0.91
7502.00,0.91
7500.00,0.91
7498.00,0.91
7496.00,0.91
7494.00,0.91
7492.00,0.91
7490.00,0.90
7488.00,0.90
7486.00,0.90
7484.00,0.90
7482.00,0.90
7480.00,0.90
7478.00,0.90
7476.00,0.90
7474.00,0.90
7472.00,0.90
7470.00,0.90
7468.00,0.90
7466.00,0.90
7464.00,0.90
7462.00,0.90
7460.00,0.90
7458.00,0.90
7456.00,0.90
7454.00,0.90
7452.00,0.91
7450.00,0.91
7448.00,0.91
7446.00,0.91
7444.00,0.91
7442.00,0.91
7440.00,0.91
7438.00,0.91
7436.00,0.91
7434.00,0.90
7432.00,0.90
7430.00,0.90
7428.00,0.90
7426.00,0.90
7424.00,0.90
7422.00,0.90
7420.00,0.90
7418.00,0.90
7416.00,0.90
7414.00,0.90
7412.00,0.89
7410.00,0.89
7408.00,0.89
7406.00,0.89
7404.00,0.89
7402.00,0.89
7400.00,0.89
7398.00,0.90
7396.00,0.90
7394.00,0.90
7392.00,0.90
7390.00,0.90
7388.00,0.90
7386.00,0.90
7384.00,0.90
7382.00,0.89
7380.00,0.89
7378.00,0.89
7376.00,0.89
7374.00,0.89
7372.00,0.89
7370.00,0.89
7368.00,0.89
7366.00,0.89
7364.00,0.89
7362.00,0.89
7360.00,0.89
7358.00,0.89
7356.00,0.89
7354.00,0.89
7352.00,0.89
7350.00,0.89
7348.00,0.89
7346.00,0.89
7344.00,0.89
7342.00,0.90
7340.00,0.90
7338.00,0.90
7336.00,0.90
7334.00,0.90
7332.00,0.89
7330.00,0.89
7328.00,0.89
7326.00,0.89
7324.00,0.89
7322.00,0.89
7320.00,0.89
7318.00,0.90
7316.00,0.90
7314.00,0.90
7312.00,0.90
7310.00,0.90
7308.00,0.90
7306.00,0.90
7304.00,0.90
7302.00,0.89
7300.00,0.89
7298.00,0.89
7296.00,0.89
7294.00,0.89
7292.00,0.89
7290.00,0.89
7288.00,0.89
7286.00,0.89
7284.00,0.89
7282.00,0.90
7280.00,0.90
7278.00,0.90
7276.00,0.90
7274.00,0.90
7272.00,0.90
7270.00,0.90
7268.00,0.90
7266.00,0.90
7264.00,0.90
7262.00,0.89
7260.00,0.89
7258.00,0.89
7256.00,0.89
7254.00,0.89
7252.00,0.89
7250.00,0.89
7248.00,0.89
7246.00,0.89
7244.00,0.89
7242.00,0.89
7240.00,0.89
7238.00,0.88
7236.00,0.88
7234.00,0.88
7232.00,0.88
7230.00,0.88
7228.00,0.88
7226.00,0.88
7224.00,0.88
7222.00,0.88
7220.00,0.88
7218.00,0.87
7216.00,0.87
7214.00,0.87
7212.00,0.87
7210.00,0.88
7208.00,0.88
7206.00,0.88
7204.00,0.88
7202.00,0.88
7200.00,0.88
7198.00,0.88
7196.00,0.88
7194.00,0.88
7192.00,0.88
7190.00,0.88
7188.00,0.88
7186.00,0.88
7184.00,0.87
7182.00,0.87
7180.00,0.87
7178.00,0.87
7176.00,0.87
7174.00,0.87
7172.00,0.87
7170.00,0.87
7168.00,0.87
7166.00,0.87
7164.00,0.87
7162.00,0.87
7160.00,0.87
7158.00,0.87
7156.00,0.87
7154.00,0.87
7152.00,0.87
7150.00,0.87
7148.00,0.87
7146.00,0.87
7144.00,0.87
7142.00,0.87
7140.00,0.87
7138.00,0.87
7136.00,0.87
7134.00,0.86
7132.00,0.86
7130.00,0.86
7128.00,0.86
7126.00,0.86
7124.00,0.86
7122.00,0.86
7120.00,0.86
7118.00,0.86
7116.00,0.86
7114.00,0.86
7112.00,0.86
7110.00,0.86
7108.00,0.85
7106.00,0.85
7104.00,0.85
7102.00,0.85
7100.00,0.85
7098.00,0.85
7096.00,0.85
7094.00,0.85
7092.00,0.85
7090.00,0.85
7088.00,0.85
7086.00,0.84
7084.00,0.84
7082.00,0.84
7080.00,0.84
7078.00,0.84
7076.00,0.84
7074.00,0.84
7072.00,0.85
7070.00,0.85
7068.00,0.85
7066.00,0.85
7064.00,0.85
7062.00,0.85
7060.00,0.85
7058.00,0.85
7056.00,0.85
7054.00,0.85
7052.00,0.85
7050.00,0.85
7048.00,0.85
7046.00,0.85
7044.00,0.85
7042.00,0.85
7040.00,0.85
7038.00,0.84
7036.00,0.84
7034.00,0.84
7032.00,0.84
7030.00,0.84
7028.00,0.84
7026.00,0.84
7024.00,0.84
7022.00,0.84
7020.00,0.84
7018.00,0.84
7016.00,0.84
7014.00,0.84
7012.00,0.84
7010.00,0.84
7008.00,0.84
7006.00,0.84
7004.00,0.84
7002.00,0.84
7000.00,0.84
6998.00,0.84
6996.00,0.84
6994.00,0.84
6992.00,0.84
6990.00,0.84
6988.00,0.84
6986.00,0.84
6984.00,0.84
6982.00,0.84
6980.00,0.84
6978.00,0.84
6976.00,0.84
6974.00,0.84
6972.00,0.83
6970.00,0.83
6968.00,0.83
6966.00,0.83
6964.00,0.83
6962.00,0.83
6960.00,0.83
6958.00,0.83
6956.00,0.83
6954.00,0.83
6952.00,0.83
6950.00,0.83
6948.00,0.83
6946.00,0.83
6944.00,0.83
6942.00,0.83
6940.00,0.83
6938.00,0.83
6936.00,0.84
6934.00,0.84
6932.00,0.84
6930.00,0.84
6928.00,0.84
6926.00,0.84
6924.00,0.84
6922.00,0.84
6920.00,0.84
6918.00,0.84
6916.00,0.84
6914.00,0.84
6912.00,0.84
6910.00,0.84
6908.00,0.84
6906.00,0.84
6904.00,0.84
6902.00,0.84
6900.00,0.84
6898.00,0.84
6896.00,0.84
6894.00,0.84
6892.00,0.84
6890.00,0.84
6888.00,0.84
6886.00,0.83
6884.00,0.83
6882.00,0.83
6880.00,0.83
6878.00,0.83
6876.00,0.83
6874.00,0.83
6872.00,0.84
6870.00,0.84
6868.00,0.84
6866.00,0.84
6864.00,0.84
6862.00,0.84
6860.00,0.84
6858.00,0.84
6856.00,0.84
6854.00,0.84
6852.00,0.84
6850.00,0.84
6848.00,0.84
6846.00,0.84
6844.00,0.84
6842.00,0.84
6840.00,0.84
6838.00,0.84
6836.00,0.84
6834.00,0.84
6832.00,0.84
6830.00,0.84
6828.00,0.84
6826.00,0.84
6824.00,0.84
6822.00,0.84
6820.00,0.83
6818.00,0.83
6816.00,0.83
6814.00,0.83
6812.00,0.84
6810.00,0.84
6808.00,0.84
6806.00,0.84
6804.00,0.84
6802.00,0.84
6800.00,0.84
6798.00,0.84
6796.00,0.84
6794.00,0.85
6792.00,0.85
6790.00,0.85
6788.00,0.85
6786.00,0.85
6784.00,0.85
6782.00,0.85
6780.00,0.85
6778.00,0.85
6776.00,0.84
6774.00,0.84
6772.00,0.84
6770.00,0.84
6768.00,0.84
6766.00,0.84
6764.00,0.84
6762.00,0.84
6760.00,0.84
6758.00,0.84
6756.00,0.84
6754.00,0.84
6752.00,0.85
6750.00,0.85
6748.00,0.85
6746.00,0.85
6744.00,0.84
6742.00,0.84
6740.00,0.84
6738.00,0.84
6736.00,0.84
6734.00,0.84
6732.00,0.84
6730.00,0.84
6728.00,0.85
6726.00,0.85
6724.00,0.85
6722.00,0.85
6720.00,0.85
6718.00,0.85
6716.00,0.85
6714.00,0.85
6712.00,0.85
6710.00,0.84
6708.00,0.84
6706.00,0.85
6704.00,0.85
6702.00,0.85
6700.00,0.85
6698.00,0.85
6696.00,0.85
6694.00,0.85
6692.00,0.85
6690.00,0.85
6688.00,0.85
6686.00,0.85
6684.00,0.85
6682.00,0.85
6680.00,0.85
6678.00,0.85
6676.00,0.86
6674.00,0.86
6672.00,0.86
6670.00,0.86
6668.00,0.86
6666.00,0.85
6664.00,0.85
6662.00,0.85
6660.00,0.85
6658.00,0.85
6656.00,0.85
6654.00,0.85
6652.00,0.85
6650.00,0.85
6648.00,0.85
6646.00,0.86
6644.00,0.86
6642.00,0.86
6640.00,0.86
6638.00,0.86
6636.00,0.86
6634.00,0.86
6632.00,0.86
6630.00,0.86
6628.00,0.86
6626.00,0.86
6624.00,0.86
6622.00,0.86
6620.00,0.86
6618.00,0.86
6616.00,0.86
6614.00,0.86
6612.00,0.86
6610.00,0.86
6608.00,0.86
6606.00,0.86
6604.00,0.86
6602.00,0.86
6600.00,0.86
6598.00,0.86
6596.00,0.86
6594.00,0.86
6592.00,0.86
6590.00,0.86
6588.00,0.86
6586.00,0.86
6584.00,0.87
6582.00,0.87
6580.00,0.87
6578.00,0.87
6576.00,0.87
6574.00,0.87
6572.00,0.87
6570.00,0.87
6568.00,0.87
6566.00,0.87
6564.00,0.87
6562.00,0.86
6560.00,0.86
6558.00,0.86
6556.00,0.86
6554.00,0.86
6552.00,0.86
6550.00,0.86
6548.00,0.86
6546.00,0.86
6544.00,0.86
6542.00,0.86
6540.00,0.86
6538.00,0.87
6536.00,0.87
6534.00,0.87
6532.00,0.87
6530.00,0.87
6528.00,0.87
6526.00,0.87
6524.00,0.87
6522.00,0.87
6520.00,0.87
6518.00,0.87
6516.00,0.87
6514.00,0.87
6512.00,0.87
6510.00,0.87
6508.00,0.87
6506.00,0.87
6504.00,0.87
6502.00,0.87
6500.00,0.87
6498.00,0.87
6496.00,0.87
6494.00,0.87
6492.00,0.87
6490.00,0.87
6488.00,0.87
6486.00,0.87
6484.00,0.87
6482.00,0.87
6480.00,0.87
6478.00,0.87
6476.00,0.87
6474.00,0.87
6472.00,0.87
6470.00,0.87
6468.00,0.87
6466.00,0.87
6464.00,0.87
6462.00,0.87
6460.00,0.87
6458.00,0.87
6456.00,0.87
6454.00,0.87
6452.00,0.87
6450.00,0.87
6448.00,0.87
6446.00,0.87
6444.00,0.87
6442.00,0.87
6440.00,0.87
6438.00,0.87
6436.00,0.88
6434.00,0.88
6432.00,0.88
6430.00,0.88
6428.00,0.88
6426.00,0.88
6424.00,0.88
6422.00,0.88
6420.00,0.88
6418.00,0.88
6416.00,0.88
6414.00,0.88
6412.00,0.88
6410.00,0.88
6408.00,0.88
6406.00,0.88
6404.00,0.88
6402.00,0.88
6400.00,0.88
6398.00,0.88
6396.00,0.88
6394.00,0.88
6392.00,0.88
6390.00,0.88
6388.00,0.88
6386.00,0.88
6384.00,0.88
6382.00,0.88
6380.00,0.88
6378.00,0.88
6376.00,0.88
6374.00,0.88
6372.00,0.88
6370.00,0.88
6368.00,0.88
6366.00,0.88
6364.00,0.88
6362.00,0.88
6360.00,0.88
6358.00,0.88
6356.00,0.88
6354.00,0.88
6352.00,0.88
6350.00,0.88
6348.00,0.88
6346.00,0.88
6344.00,0.88
6342.00,0.88
6340.00,0.88
6338.00,0.88
6336.00,0.88
6334.00,0.88
6332.00,0.88
6330.00,0.88
6328.00,0.88
6326.00,0.88
6324.00,0.88
6322.00,0.88
6320.00,0.88
6318.00,0.88
6316.00,0.88
6314.00,0.88
6312.00,0.88
6310.00,0.88
6308.00,0.88
6306.00,0.88
6304.00,0.88
6302.00,0.88
6300.00,0.88
6298.00,0.88
6296.00,0.88
6294.00,0.88
6292.00,0.89
6290.00,0.89
6288.00,0.89
6286.00,0.89
6284.00,0.89
6282.00,0.89
6280.00,0.89
6278.00,0.88
6276.00,0.88
6274.00,0.88
6272.00,0.88
6270.00,0.88
6268.00,0.88
6266.00,0.88
6264.00,0.88
6262.00,0.88
6260.00,0.89
6258.00,0.89
6256.00,0.89
6254.00,0.89
6252.00,0.89
6250.00,0.89
6248.00,0.89
6246.00,0.89
6244.00,0.89
6242.00,0.89
6240.00,0.89
6238.00,0.89
6236.00,0.89
6234.00,0.89
6232.00,0.89
6230.00,0.89
6228.00,0.89
6226.00,0.89
6224.00,0.89
6222.00,0.89
6220.00,0.89
6218.00,0.89
6216.00,0.89
6214.00,0.89
6212.00,0.89
6210.00,0.89
6208.00,0.89
6206.00,0.89
6204.00,0.89
6202.00,0.89
6200.00,0.89
6198.00,0.89
6196.00,0.89
6194.00,0.89
6192.00,0.89
6190.00,0.89
6188.00,0.89
6186.00,0.89
6184.00,0.89
6182.00,0.89
6180.00,0.89
6178.00,0.89
6176.00,0.89
6174.00,0.89
6172.00,0.89
6170.00,0.89
6168.00,0.89
6166.00,0.89
6164.00,0.90
6162.00,0.90
6160.00,0.90
6158.00,0.90
6156.00,0.90
6154.00,0.90
6152.00,0.90
6150.00,0.90
6148.00,0.90
6146.00,0.89
6144.00,0.89
6142.00,0.89
6140.00,0.89
6138.00,0.90
6136.00,0.90
6134.00,0.90
6132.00,0.90
6130.00,0.90
6128.00,0.90
6126.00,0.90
6124.00,0.90
6122.00,0.90
6120.00,0.90
6118.00,0.90
6116.00,0.90
6114.00,0.90
6112.00,0.91
6110.00,0.91
6108.00,0.91
6106.00,0.91
6104.00,0.91
6102.00,0.91
6100.00,0.91
6098.00,0.91
6096.00,0.91
6094.00,0.90
6092.00,0.90
6090.00,0.90
6088.00,0.90
6086.00,0.90
6084.00,0.90
6082.00,0.90
6080.00,0.90
6078.00,0.90
6076.00,0.90
6074.00,0.91
6072.00,0.91
6070.00,0.91
6068.00,0.91
6066.00,0.91
6064.00,0.91
6062.00,0.91
6060.00,0.91
6058.00,0.91
6056.00,0.91
6054.00,0.91
6052.00,0.91
6050.00,0.91
6048.00,0.91
6046.00,0.91
6044.00,0.91
6042.00,0.91
6040.00,0.91
6038.00,0.91
6036.00,0.91
6034.00,0.91
6032.00,0.91
6030.00,0.91
6028.00,0.91
6026.00,0.91
6024.00,0.91
6022.00,0.91
6020.00,0.91
6018.00,0.91
6016.00,0.91
6014.00,0.91
6012.00,0.91
6010.00,0.91
6008.00,0.91
6006.00,0.91
6004.00,0.91
6002.00,0.91
6000.00,0.91
5998.00,0.91
5996.00,0.91
5994.00,0.91
5992.00,0.91
5990.00,0.91
5988.00,0.91
5986.00,0.91
5984.00,0.91
5982.00,0.91
5980.00,0.91
5978.00,0.91
5976.00,0.91
5974.00,0.91
5972.00,0.91
5970.00,0.91
5968.00,0.90
5966.00,0.90
5964.00,0.90
5962.00,0.90
5960.00,0.90
5958.00,0.89
5956.00,0.89
5954.00,0.89
5952.00,0.89
5950.00,0.89
5948.00,0.89
5946.00,0.89
5944.00,0.89
5942.00,0.89
5940.00,0.89
5938.00,0.89
5936.00,0.89
5934.00,0.89
5932.00,0.89
5930.00,0.89
5928.00,0.89
5926.00,0.89
5924.00,0.89
5922.00,0.89
5920.00,0.89
5918.00,0.89
5916.00,0.89
5914.00,0.89
5912.00,0.89
5910.00,0.89
5908.00,0.88
5906.00,0.88
5904.00,0.88
5902.00,0.88
5900.00,0.89
5898.00,0.89
5896.00,0.89
5894.00,0.89
5892.00,0.89
5890.00,0.89
5888.00,0.89
5886.00,0.89
5884.00,0.89
5882.00,0.89
5880.00,0.89
5878.00,0.89
5876.00,0.89
5874.00,0.89
5872.00,0.89
5870.00,0.89
5868.00,0.89
5866.00,0.89
5864.00,0.89
5862.00,0.89
5860.00,0.89
5858.00,0.89
5856.00,0.89
5854.00,0.89
5852.00,0.89
5850.00,0.89
5848.00,0.89
5846.00,0.89
5844.00,0.89
5842.00,0.89
5840.00,0.89
5838.00,0.89
5836.00,0.90
5834.00,0.90
5832.00,0.90
5830.00,0.90
5828.00,0.90
5826.00,0.90
5824.00,0.90
5822.00,0.90
5820.00,0.90
5818.00,0.90
5816.00,0.90
5814.00,0.90
5812.00,0.89
5810.00,0.89
5808.00,0.89
5806.00,0.89
5804.00,0.89
5802.00,0.89
5800.00,0.89
5798.00,0.89
5796.00,0.89
5794.00,0.89
5792.00,0.89
5790.00,0.89
5788.00,0.89
5786.00,0.89
5784.00,0.89
5782.00,0.89
5780.00,0.89
5778.00,0.89
5776.00,0.89
5774.00,0.89
5772.00,0.89
5770.00,0.89
5768.00,0.89
5766.00,0.89
5764.00,0.89
5762.00,0.89
5760.00,0.89
5758.00,0.89
5756.00,0.89
5754.00,0.89
5752.00,0.89
5750.00,0.89
5748.00,0.89
5746.00,0.89
5744.00,0.89
5742.00,0.90
5740.00,0.90
5738.00,0.90
5736.00,0.90
5734.00,0.90
5732.00,0.90
5730.00,0.90
5728.00,0.90
5726.00,0.90
5724.00,0.90
5722.00,0.90
5720.00,0.90
5718.00,0.90
5716.00,0.90
5714.00,0.90
5712.00,0.90
5710.00,0.90
5708.00,0.90
5706.00,0.90
5704.00,0.90
5702.00,0.90
5700.00,0.90
5698.00,0.90
5696.00,0.90
5694.00,0.90
5692.00,0.90
5690.00,0.90
5688.00,0.90
5686.00,0.90
5684.00,0.90
5682.00,0.90
5680.00,0.90
5678.00,0.90
5676.00,0.90
5674.00,0.90
5672.00,0.90
5670.00,0.90
5668.00,0.90
5666.00,0.90
5664.00,0.90
5662.00,0.90
5660.00,0.90
5658.00,0.90
5656.00,0.90
5654.00,0.90
5652.00,0.90
5650.00,0.90
5648.00,0.90
5646.00,0.90
5644.00,0.90
5642.00,0.90
5640.00,0.90
5638.00,0.90
5636.00,0.90
5634.00,0.90
5632.00,0.90
5630.00,0.90
5628.00,0.90
5626.00,0.90
5624.00,0.90
5622.00,0.91
5620.00,0.91
5618.00,0.91
5616.00,0.91
5614.00,0.91
5612.00,0.91
5610.00,0.91
5608.00,0.91
5606.00,0.91
5604.00,0.91
5602.00,0.91
5600.00,0.91
5598.00,0.91
5596.00,0.91
5594.00,0.91
5592.00,0.91
5590.00,0.91
5588.00,0.91
5586.00,0.91
5584.00,0.91
5582.00,0.91
5580.00,0.92
5578.00,0.92
5576.00,0.92
5574.00,0.92
5572.00,0.91
5570.00,0.91
5568.00,0.91
5566.00,0.91
5564.00,0.91
5562.00,0.91
5560.00,0.91
5558.00,0.91
5556.00,0.91
5554.00,0.91
5552.00,0.91
5550.00,0.91
5548.00,0.91
5546.00,0.91
5544.00,0.91
5542.00,0.91
5540.00,0.91
5538.00,0.91
5536.00,0.92
5534.00,0.92
5532.00,0.92
5530.00,0.92
5528.00,0.92
5526.00,0.92
5524.00,0.92
5522.00,0.92
5520.00,0.92
5518.00,0.92
5516.00,0.92
5514.00,0.92
5512.00,0.91
5510.00,0.91
5508.00,0.91
5506.00,0.91
5504.00,0.91
5502.00,0.91
5500.00,0.91
5498.00,0.91
5496.00,0.91
5494.00,0.91
5492.00,0.91
5490.00,0.91
5488.00,0.92
5486.00,0.92
5484.00,0.92
5482.00,0.92
5480.00,0.92
5478.00,0.92
5476.00,0.92
5474.00,0.92
5472.00,0.92
5470.00,0.92
5468.00,0.92
5466.00,0.92
5464.00,0.92
5462.00,0.92
5460.00,0.92
5458.00,0.92
5456.00,0.92
5454.00,0.92
5452.00,0.92
5450.00,0.92
5448.00,0.92
5446.00,0.92
5444.00,0.92
5442.00,0.92
5440.00,0.91
5438.00,0.91
5436.00,0.91
5434.00,0.91
5432.00,0.91
5430.00,0.91
5428.00,0.92
5426.00,0.92
5424.00,0.92
5422.00,0.92
5420.00,0.92
5418.00,0.92
5416.00,0.92
5414.00,0.92
5412.00,0.92
5410.00,0.92
5408.00,0.92
5406.00,0.92
5404.00,0.92
5402.00,0.92
5400.00,0.92
5398.00,0.92
5396.00,0.92
5394.00,0.92
5392.00,0.92
5390.00,0.92
5388.00,0.92
5386.00,0.92
5384.00,0.92
5382.00,0.92
5380.00,0.92
5378.00,0.92
5376.00,0.92
5374.00,0.92
5372.00,0.92
5370.00,0.92
5368.00,0.92
5366.00,0.92
5364.00,0.92
5362.00,0.92
5360.00,0.91
5358.00,0.91
5356.00,0.91
5354.00,0.91
5352.00,0.91
5350.00,0.91
5348.00,0.91
5346.00,0.90
5344.00,0.90
5342.00,0.90
5340.00,0.90
5338.00,0.90
5336.00,0.90
5334.00,0.90
5332.00,0.89
5330.00,0.89
5328.00,0.89
5326.00,0.89
5324.00,0.89
5322.00,0.89
5320.00,0.89
5318.00,0.89
5316.00,0.88
5314.00,0.88
5312.00,0.88
5310.00,0.87
5308.00,0.87
5306.00,0.87
5304.00,0.86
5302.00,0.86
5300.00,0.86
5298.00,0.86
5296.00,0.85
5294.00,0.85
5292.00,0.85
5290.00,0.85
5288.00,0.85
5286.00,0.84
5284.00,0.84
5282.00,0.84
5280.00,0.84
5278.00,0.84
5276.00,0.84
5274.00,0.84
5272.00,0.83
5270.00,0.83
5268.00,0.83
5266.00,0.83
5264.00,0.83
5262.00,0.82
5260.00,0.82
5258.00,0.82
5256.00,0.82
5254.00,0.82
5252.00,0.82
5250.00,0.81
5248.00,0.81
5246.00,0.81
5244.00,0.81
5242.00,0.81
5240.00,0.81
5238.00,0.81
5236.00,0.81
5234.00,0.81
5232.00,0.80
5230.00,0.80
5228.00,0.80
5226.00,0.80
5224.00,0.80
5222.00,0.80
5220.00,0.80
5218.00,0.80
5216.00,0.80
5214.00,0.79
5212.00,0.79
5210.00,0.79
5208.00,0.79
5206.00,0.79
5204.00,0.79
5202.00,0.79
5200.00,0.79
5198.00,0.79
5196.00,0.79
5194.00,0.79
5192.00,0.79
5190.00,0.78
5188.00,0.78
5186.00,0.78
5184.00,0.78
5182.00,0.78
5180.00,0.78
5178.00,0.78
5176.00,0.78
5174.00,0.78
5172.00,0.78
5170.00,0.78
5168.00,0.78
5166.00,0.78
5164.00,0.78
5162.00,0.78
5160.00,0.78
5158.00,0.78
5156.00,0.78
5154.00,0.78
5152.00,0.79
5150.00,0.79
5148.00,0.79
5146.00,0.79
5144.00,0.79
5142.00,0.79
5140.00,0.79
5138.00,0.79
5136.00,0.79
5134.00,0.79
5132.00,0.79
5130.00,0.79
5128.00,0.79
5126.00,0.79
5124.00,0.79
5122.00,0.79
5120.00,0.80
5118.00,0.80
5116.00,0.80
5114.00,0.80
5112.00,0.80
5110.00,0.80
5108.00,0.80
5106.00,0.80
5104.00,0.80
5102.00,0.80
5100.00,0.81
5098.00,0.81
5096.00,0.81
5094.00,0.81
5092.00,0.81
5090.00,0.81
5088.00,0.81
5086.00,0.81
5084.00,0.82
5082.00,0.82
5080.00,0.82
5078.00,0.82
5076.00,0.82
5074.00,0.82
5072.00,0.82
5070.00,0.82
5068.00,0.82
5066.00,0.82
5064.00,0.82
5062.00,0.83
5060.00,0.83
5058.00,0.83
5056.00,0.83
5054.00,0.83
5052.00,0.83
5050.00,0.83
5048.00,0.83
5046.00,0.83
5044.00,0.83
5042.00,0.84
5040.00,0.84
5038.00,0.84
5036.00,0.84
5034.00,0.84
5032.00,0.84
5030.00,0.84
5028.00,0.84
5026.00,0.84
5024.00,0.84
5022.00,0.84
5020.00,0.85
5018.00,0.85
5016.00,0.85
5014.00,0.85
5012.00,0.85
5010.00,0.85
5008.00,0.85
5006.00,0.85
5004.00,0.85
5002.00,0.85
5000.00,0.85
4998.00,0.85
4996.00,0.85
4994.00,0.85
4992.00,0.86
4990.00,0.86
4988.00,0.86
4986.00,0.86
4984.00,0.86
4982.00,0.86
4980.00,0.86
4978.00,0.86
4976.00,0.86
4974.00,0.86
4972.00,0.87
4970.00,0.87
4968.00,0.87
4966.00,0.87
4964.00,0.87
4962.00,0.87
4960.00,0.87
4958.00,0.87
4956.00,0.87
4954.00,0.87
4952.00,0.87
4950.00,0.87
4948.00,0.87
4946.00,0.87
4944.00,0.87
4942.00,0.87
4940.00,0.87
4938.00,0.87
4936.00,0.87
4934.00,0.87
4932.00,0.87
4930.00,0.87
4928.00,0.88
4926.00,0.88
4924.00,0.88
4922.00,0.88
4920.00,0.88
4918.00,0.88
4916.00,0.88
4914.00,0.88
4912.00,0.88
4910.00,0.88
4908.00,0.88
4906.00,0.88
4904.00,0.88
4902.00,0.88
4900.00,0.88
4898.00,0.88
4896.00,0.88
4894.00,0.88
4892.00,0.88
4890.00,0.88
4888.00,0.88
4886.00,0.88
4884.00,0.88
4882.00,0.88
4880.00,0.88
4878.00,0.88
4876.00,0.88
4874.00,0.88
4872.00,0.88
4870.00,0.88
4868.00,0.88
4866.00,0.88
4864.00,0.88
4862.00,0.88
4860.00,0.88
4858.00,0.88
4856.00,0.88
4854.00,0.88
4852.00,0.88
4850.00,0.88
4848.00,0.88
4846.00,0.88
4844.00,0.88
4842.00,0.88
4840.00,0.88
4838.00,0.88
4836.00,0.88
4834.00,0.88
4832.00,0.88
4830.00,0.88
4828.00,0.88
4826.00,0.88
4824.00,0.88
4822.00,0.88
4820.00,0.88
4818.00,0.88
4816.00,0.88
4814.00,0.88
4812.00,0.88
4810.00,0.88
4808.00,0.88
4806.00,0.89
4804.00,0.89
4802.00,0.89
4800.00,0.89
4798.00,0.89
4796.00,0.89
4794.00,0.89
4792.00,0.89
4790.00,0.89
4788.00,0.89
4786.00,0.89
4784.00,0.89
4782.00,0.89
4780.00,0.90
4778.00,0.90
4776.00,0.90
4774.00,0.90
4772.00,0.89
4770.00,0.89
4768.00,0.89
4766.00,0.89
4764.00,0.89
4762.00,0.89
4760.00,0.89
4758.00,0.89
4756.00,0.90
4754.00,0.90
4752.00,0.90
4750.00,0.90
4748.00,0.90
4746.00,0.90
4744.00,0.90
4742.00,0.90
4740.00,0.90
4738.00,0.90
4736.00,0.90
4734.00,0.90
4732.00,0.90
4730.00,0.90
4728.00,0.90
4726.00,0.90
4724.00,0.91
4722.00,0.91
4720.00,0.91
4718.00,0.91
4716.00,0.90
4714.00,0.90
4712.00,0.90
4710.00,0.90
4708.00,0.90
4706.00,0.91
4704.00,0.91
4702.00,0.91
4700.00,0.91
4698.00,0.91
4696.00,0.91
4694.00,0.91
4692.00,0.91
4690.00,0.91
4688.00,0.91
4686.00,0.91
4684.00,0.91
4682.00,0.91
4680.00,0.91
4678.00,0.91
4676.00,0.91
4674.00,0.91
4672.00,0.91
4670.00,0.91
4668.00,0.91
4666.00,0.91
4664.00,0.91
4662.00,0.91
4660.00,0.91
4658.00,0.91
4656.00,0.91
4654.00,0.91
4652.00,0.91
4650.00,0.92
4648.00,0.92
4646.00,0.92
4644.00,0.92
4642.00,0.92
4640.00,0.92
4638.00,0.92
4636.00,0.92
4634.00,0.92
4632.00,0.92
4630.00,0.92
4628.00,0.92
4626.00,0.92
4624.00,0.92
4622.00,0.92
4620.00,0.92
4618.00,0.92
4616.00,0.92
4614.00,0.92
4612.00,0.92
4610.00,0.92
4608.00,0.92
4606.00,0.92
4604.00,0.92
4602.00,0.92
4600.00,0.92
4598.00,0.92
4596.00,0.92
4594.00,0.92
4592.00,0.92
4590.00,0.92
4588.00,0.92
4586.00,0.92
4584.00,0.92
4582.00,0.92
4580.00,0.92
4578.00,0.92
4576.00,0.92
4574.00,0.92
4572.00,0.92
4570.00,0.92
4568.00,0.92
4566.00,0.92
4564.00,0.92
4562.00,0.92
4560.00,0.92
4558.00,0.92
4556.00,0.92
4554.00,0.92
4552.00,0.92
4550.00,0.92
4548.00,0.92
4546.00,0.92
4544.00,0.92
4542.00,0.92
4540.00,0.92
4538.00,0.92
4536.00,0.92
4534.00,0.92
4532.00,0.92
4530.00,0.92
4528.00,0.92
4526.00,0.92
4524.00,0.92
4522.00,0.92
4520.00,0.92
4518.00,0.92
4516.00,0.92
4514.00,0.92
4512.00,0.92
4510.00,0.92
4508.00,0.92
4506.00,0.92
4504.00,0.92
4502.00,0.92
4500.00,0.92
4498.00,0.92
4496.00,0.92
4494.00,0.92
4492.00,0.92
4490.00,0.92
4488.00,0.92
4486.00,0.92
4484.00,0.92
4482.00,0.92
4480.00,0.92
4478.00,0.92
4476.00,0.92
4474.00,0.92
4472.00,0.91
4470.00,0.91
4468.00,0.91
4466.00,0.91
4464.00,0.91
4462.00,0.91
4460.00,0.91
4458.00,0.91
4456.00,0.91
4454.00,0.91
4452.00,0.90
4450.00,0.90
4448.00,0.90
4446.00,0.90
4444.00,0.89
4442.00,0.89
4440.00,0.89
4438.00,0.89
4436.00,0.89
4434.00,0.88
4432.00,0.88
4430.00,0.88
4428.00,0.87
4426.00,0.87
4424.00,0.87
4422.00,0.86
4420.00,0.86
4418.00,0.86
4416.00,0.86
4414.00,0.86
4412.00,0.86
4410.00,0.86
4408.00,0.85
4406.00,0.85
4404.00,0.85
4402.00,0.85
4400.00,0.85
4398.00,0.85
4396.00,0.86
4394.00,0.86
4392.00,0.86
4390.00,0.86
4388.00,0.86
4386.00,0.87
4384.00,0.87
4382.00,0.87
4380.00,0.87
4378.00,0.88
4376.00,0.88
4374.00,0.88
4372.00,0.88
4370.00,0.88
4368.00,0.88
4366.00,0.88
4364.00,0.88
4362.00,0.88
4360.00,0.88
4358.00,0.88
4356.00,0.88
4354.00,0.87
4352.00,0.87
4350.00,0.87
4348.00,0.87
4346.00,0.86
4344.00,0.86
4342.00,0.86
4340.00,0.86
4338.00,0.86
4336.00,0.86
4334.00,0.86
4332.00,0.86
4330.00,0.86
4328.00,0.86
4326.00,0.87
4324.00,0.87
4322.00,0.87
4320.00,0.88
4318.00,0.88
4316.00,0.88
4314.00,0.89
4312.00,0.89
4310.00,0.89
4308.00,0.90
4306.00,0.90
4304.00,0.90
4302.00,0.90
4300.00,0.91
4298.00,0.91
4296.00,0.91
4294.00,0.91
4292.00,0.91
4290.00,0.91
4288.00,0.91
4286.00,0.91
4284.00,0.92
4282.00,0.91
4280.00,0.91
4278.00,0.91
4276.00,0.91
4274.00,0.91
4272.00,0.91
4270.00,0.91
4268.00,0.91
4266.00,0.91
4264.00,0.91
4262.00,0.90
4260.00,0.90
4258.00,0.90
4256.00,0.90
4254.00,0.90
4252.00,0.90
4250.00,0.90
4248.00,0.90
4246.00,0.90
4244.00,0.91
4242.00,0.91
4240.00,0.91
4238.00,0.91
4236.00,0.91
4234.00,0.91
4232.00,0.91
4230.00,0.91
4228.00,0.91
4226.00,0.91
4224.00,0.91
4222.00,0.91
4220.00,0.92
4218.00,0.92
4216.00,0.92
4214.00,0.92
4212.00,0.92
4210.00,0.92
4208.00,0.92
4206.00,0.92
4204.00,0.92
4202.00,0.92
4200.00,0.92
4198.00,0.92
4196.00,0.92
4194.00,0.92
4192.00,0.92
4190.00,0.92
4188.00,0.92
4186.00,0.92
4184.00,0.92
4182.00,0.92
4180.00,0.92
4178.00,0.92
4176.00,0.91
4174.00,0.91
4172.00,0.91
4170.00,0.91
4168.00,0.91
4166.00,0.91
4164.00,0.91
4162.00,0.91
4160.00,0.91
4158.00,0.91
4156.00,0.91
4154.00,0.91
4152.00,0.91
4150.00,0.91
4148.00,0.91
4146.00,0.91
4144.00,0.91
4142.00,0.91
4140.00,0.91
4138.00,0.91
4136.00,0.92
4134.00,0.92
4132.00,0.92
4130.00,0.92
4128.00,0.92
4126.00,0.92
4124.00,0.92
4122.00,0.92
4120.00,0.92
4118.00,0.92
4116.00,0.92
4114.00,0.92
4112.00,0.92
4110.00,0.91
4108.00,0.91
4106.00,0.91
4104.00,0.91
4102.00,0.91
4100.00,0.91
4098.00,0.91
4096.00,0.91
4094.00,0.91
4092.00,0.91
4090.00,0.90
4088.00,0.90
4086.00,0.90
4084.00,0.90
4082.00,0.90
4080.00,0.90
4078.00,0.90
4076.00,0.90
4074.00,0.90
4072.00,0.90
4070.00,0.90
4068.00,0.90
4066.00,0.90
4064.00,0.90
4062.00,0.90
4060.00,0.90
4058.00,0.90
4056.00,0.89
4054.00,0.89
4052.00,0.89
4050.00,0.89
4048.00,0.90
4046.00,0.90
4044.00,0.90
4042.00,0.90
4040.00,0.90
4038.00,0.90
4036.00,0.90
4034.00,0.90
4032.00,0.90
4030.00,0.90
4028.00,0.90
4026.00,0.90
4024.00,0.90
4022.00,0.91
4020.00,0.91
4018.00,0.91
4016.00,0.91
4014.00,0.91
4012.00,0.91
4010.00,0.91
4008.00,0.92
4006.00,0.92
4004.00,0.92
4002.00,0.92
4000.00,0.92
