创建为新数据集,样品 1732 用户 Administrator 日期 星期三, 三月 15 2017
cm-1,%T
10000.00,0.93
9998.00,0.93
9996.00,0.93
9994.00,0.93
9992.00,0.93
9990.00,0.93
9988.00,0.93
9986.00,0.93
9984.00,0.94
9982.00,0.94
9980.00,0.94
9978.00,0.94
9976.00,0.94
9974.00,0.94
9972.00,0.94
9970.00,0.93
9968.00,0.93
9966.00,0.93
9964.00,0.92
9962.00,0.92
9960.00,0.91
9958.00,0.91
9956.00,0.91
9954.00,0.91
9952.00,0.91
9950.00,0.92
9948.00,0.92
9946.00,0.93
9944.00,0.93
9942.00,0.94
9940.00,0.94
9938.00,0.94
9936.00,0.94
9934.00,0.94
9932.00,0.94
9930.00,0.93
9928.00,0.93
9926.00,0.93
9924.00,0.92
9922.00,0.92
9920.00,0.92
9918.00,0.93
9916.00,0.93
9914.00,0.93
9912.00,0.94
9910.00,0.94
9908.00,0.94
9906.00,0.93
9904.00,0.93
9902.00,0.92
9900.00,0.92
9898.00,0.91
9896.00,0.91
9894.00,0.91
9892.00,0.91
9890.00,0.91
9888.00,0.92
9886.00,0.92
9884.00,0.92
9882.00,0.92
9880.00,0.92
9878.00,0.92
9876.00,0.91
9874.00,0.90
9872.00,0.90
9870.00,0.90
9868.00,0.89
9866.00,0.90
9864.00,0.90
9862.00,0.90
9860.00,0.91
9858.00,0.92
9856.00,0.93
9854.00,0.93
9852.00,0.94
9850.00,0.94
9848.00,0.94
9846.00,0.94
9844.00,0.94
9842.00,0.94
9840.00,0.93
9838.00,0.93
9836.00,0.92
9834.00,0.92
9832.00,0.92
9830.00,0.92
9828.00,0.91
9826.00,0.91
9824.00,0.91
9822.00,0.91
9820.00,0.91
9818.00,0.91
9816.00,0.91
9814.00,0.90
9812.00,0.90
9810.00,0.90
9808.00,0.90
9806.00,0.90
9804.00,0.90
9802.00,0.90
9800.00,0.90
9798.00,0.91
9796.00,0.91
9794.00,0.92
9792.00,0.92
9790.00,0.92
9788.00,0.92
9786.00,0.92
9784.00,0.92
9782.00,0.92
9780.00,0.92
9778.00,0.91
9776.00,0.92
9774.00,0.92
9772.00,0.92
9770.00,0.92
9768.00,0.93
9766.00,0.93
9764.00,0.94
9762.00,0.94
9760.00,0.94
9758.00,0.94
9756.00,0.94
9754.00,0.94
9752.00,0.93
9750.00,0.93
9748.00,0.93
9746.00,0.92
9744.00,0.92
9742.00,0.92
9740.00,0.91
9738.00,0.91
9736.00,0.90
9734.00,0.90
9732.00,0.90
9730.00,0.90
9728.00,0.90
9726.00,0.90
9724.00,0.90
9722.00,0.90
9720.00,0.91
9718.00,0.91
9716.00,0.92
9714.00,0.92
9712.00,0.93
9710.00,0.93
9708.00,0.93
9706.00,0.93
9704.00,0.92
9702.00,0.92
9700.00,0.91
9698.00,0.91
9696.00,0.91
9694.00,0.91
9692.00,0.91
9690.00,0.91
9688.00,0.91
9686.00,0.91
9684.00,0.90
9682.00,0.90
9680.00,0.89
9678.00,0.89
9676.00,0.89
9674.00,0.88
9672.00,0.88
9670.00,0.88
9668.00,0.88
9666.00,0.88
9664.00,0.88
9662.00,0.89
9660.00,0.89
9658.00,0.89
9656.00,0.90
9654.00,0.91
9652.00,0.91
9650.00,0.91
9648.00,0.92
9646.00,0.92
9644.00,0.92
9642.00,0.92
9640.00,0.92
9638.00,0.92
9636.00,0.92
9634.00,0.91
9632.00,0.91
9630.00,0.90
9628.00,0.90
9626.00,0.90
9624.00,0.90
9622.00,0.89
9620.00,0.89
9618.00,0.89
9616.00,0.89
9614.00,0.89
9612.00,0.90
9610.00,0.90
9608.00,0.90
9606.00,0.91
9604.00,0.91
9602.00,0.92
9600.00,0.92
9598.00,0.92
9596.00,0.92
9594.00,0.92
9592.00,0.92
9590.00,0.92
9588.00,0.91
9586.00,0.91
9584.00,0.91
9582.00,0.90
9580.00,0.90
9578.00,0.90
9576.00,0.90
9574.00,0.90
9572.00,0.90
9570.00,0.90
9568.00,0.90
9566.00,0.90
9564.00,0.90
9562.00,0.91
9560.00,0.91
9558.00,0.91
9556.00,0.91
9554.00,0.91
9552.00,0.91
9550.00,0.91
9548.00,0.90
9546.00,0.90
9544.00,0.90
9542.00,0.89
9540.00,0.89
9538.00,0.89
9536.00,0.90
9534.00,0.90
9532.00,0.90
9530.00,0.91
9528.00,0.91
9526.00,0.92
9524.00,0.92
9522.00,0.92
9520.00,0.92
9518.00,0.91
9516.00,0.91
9514.00,0.90
9512.00,0.90
9510.00,0.90
9508.00,0.90
9506.00,0.90
9504.00,0.90
9502.00,0.91
9500.00,0.91
9498.00,0.92
9496.00,0.93
9494.00,0.93
9492.00,0.93
9490.00,0.94
9488.00,0.94
9486.00,0.94
9484.00,0.94
9482.00,0.93
9480.00,0.93
9478.00,0.92
9476.00,0.92
9474.00,0.91
9472.00,0.90
9470.00,0.90
9468.00,0.89
9466.00,0.89
9464.00,0.89
9462.00,0.89
9460.00,0.89
9458.00,0.89
9456.00,0.89
9454.00,0.89
9452.00,0.89
9450.00,0.89
9448.00,0.89
9446.00,0.89
9444.00,0.89
9442.00,0.90
9440.00,0.90
9438.00,0.91
9436.00,0.91
9434.00,0.92
9432.00,0.92
9430.00,0.92
9428.00,0.92
9426.00,0.92
9424.00,0.91
9422.00,0.91
9420.00,0.91
9418.00,0.90
9416.00,0.90
9414.00,0.90
9412.00,0.91
9410.00,0.91
9408.00,0.91
9406.00,0.91
9404.00,0.91
9402.00,0.91
9400.00,0.91
9398.00,0.91
9396.00,0.91
9394.00,0.90
9392.00,0.90
9390.00,0.90
9388.00,0.90
9386.00,0.90
9384.00,0.90
9382.00,0.90
9380.00,0.91
9378.00,0.91
9376.00,0.91
9374.00,0.91
9372.00,0.91
9370.00,0.91
9368.00,0.91
9366.00,0.91
9364.00,0.91
9362.00,0.91
9360.00,0.91
9358.00,0.91
9356.00,0.91
9354.00,0.90
9352.00,0.90
9350.00,0.90
9348.00,0.90
9346.00,0.90
9344.00,0.90
9342.00,0.90
9340.00,0.91
9338.00,0.91
9336.00,0.91
9334.00,0.92
9332.00,0.92
9330.00,0.91
9328.00,0.91
9326.00,0.91
9324.00,0.91
9322.00,0.91
9320.00,0.91
9318.00,0.92
9316.00,0.92
9314.00,0.92
9312.00,0.93
9310.00,0.93
9308.00,0.93
9306.00,0.93
9304.00,0.93
9302.00,0.94
9300.00,0.93
9298.00,0.93
9296.00,0.93
9294.00,0.93
9292.00,0.93
9290.00,0.93
9288.00,0.92
9286.00,0.92
9284.00,0.92
9282.00,0.92
9280.00,0.92
9278.00,0.92
9276.00,0.91
9274.00,0.91
9272.00,0.91
9270.00,0.90
9268.00,0.90
9266.00,0.90
9264.00,0.90
9262.00,0.90
9260.00,0.90
9258.00,0.90
9256.00,0.90
9254.00,0.90
9252.00,0.91
9250.00,0.91
9248.00,0.91
9246.00,0.91
9244.00,0.91
9242.00,0.91
9240.00,0.91
9238.00,0.91
9236.00,0.90
9234.00,0.90
9232.00,0.90
9230.00,0.90
9228.00,0.90
9226.00,0.90
9224.00,0.90
9222.00,0.90
9220.00,0.91
9218.00,0.91
9216.00,0.92
9214.00,0.92
9212.00,0.93
9210.00,0.93
9208.00,0.94
9206.00,0.94
9204.00,0.95
9202.00,0.95
9200.00,0.95
9198.00,0.95
9196.00,0.95
9194.00,0.95
9192.00,0.95
9190.00,0.95
9188.00,0.95
9186.00,0.95
9184.00,0.94
9182.00,0.94
9180.00,0.93
9178.00,0.93
9176.00,0.92
9174.00,0.92
9172.00,0.91
9170.00,0.91
9168.00,0.91
9166.00,0.90
9164.00,0.90
9162.00,0.90
9160.00,0.90
9158.00,0.91
9156.00,0.91
9154.00,0.91
9152.00,0.91
9150.00,0.91
9148.00,0.91
9146.00,0.91
9144.00,0.91
9142.00,0.91
9140.00,0.91
9138.00,0.91
9136.00,0.90
9134.00,0.90
9132.00,0.90
9130.00,0.90
9128.00,0.90
9126.00,0.90
9124.00,0.90
9122.00,0.90
9120.00,0.90
9118.00,0.90
9116.00,0.91
9114.00,0.91
9112.00,0.91
9110.00,0.91
9108.00,0.92
9106.00,0.92
9104.00,0.92
9102.00,0.92
9100.00,0.92
9098.00,0.92
9096.00,0.92
9094.00,0.92
9092.00,0.92
9090.00,0.92
9088.00,0.92
9086.00,0.92
9084.00,0.92
9082.00,0.91
9080.00,0.91
9078.00,0.91
9076.00,0.92
9074.00,0.92
9072.00,0.92
9070.00,0.92
9068.00,0.93
9066.00,0.93
9064.00,0.93
9062.00,0.93
9060.00,0.93
9058.00,0.92
9056.00,0.92
9054.00,0.92
9052.00,0.91
9050.00,0.91
9048.00,0.90
9046.00,0.90
9044.00,0.90
9042.00,0.90
9040.00,0.91
9038.00,0.91
9036.00,0.92
9034.00,0.92
9032.00,0.92
9030.00,0.92
9028.00,0.93
9026.00,0.92
9024.00,0.92
9022.00,0.92
9020.00,0.92
9018.00,0.92
9016.00,0.92
9014.00,0.92
9012.00,0.92
9010.00,0.92
9008.00,0.92
9006.00,0.92
9004.00,0.91
9002.00,0.91
9000.00,0.91
8998.00,0.91
8996.00,0.91
8994.00,0.91
8992.00,0.91
8990.00,0.91
8988.00,0.91
8986.00,0.91
8984.00,0.91
8982.00,0.91
8980.00,0.91
8978.00,0.91
8976.00,0.91
8974.00,0.91
8972.00,0.91
8970.00,0.91
8968.00,0.91
8966.00,0.91
8964.00,0.91
8962.00,0.91
8960.00,0.90
8958.00,0.90
8956.00,0.90
8954.00,0.90
8952.00,0.90
8950.00,0.90
8948.00,0.90
8946.00,0.90
8944.00,0.90
8942.00,0.90
8940.00,0.90
8938.00,0.90
8936.00,0.90
8934.00,0.91
8932.00,0.91
8930.00,0.91
8928.00,0.91
8926.00,0.91
8924.00,0.91
8922.00,0.91
8920.00,0.91
8918.00,0.92
8916.00,0.92
8914.00,0.92
8912.00,0.92
8910.00,0.92
8908.00,0.92
8906.00,0.92
8904.00,0.92
8902.00,0.92
8900.00,0.92
8898.00,0.92
8896.00,0.92
8894.00,0.92
8892.00,0.92
8890.00,0.92
8888.00,0.92
8886.00,0.92
8884.00,0.92
8882.00,0.92
8880.00,0.92
8878.00,0.92
8876.00,0.92
8874.00,0.92
8872.00,0.93
8870.00,0.93
8868.00,0.93
8866.00,0.93
8864.00,0.93
8862.00,0.92
8860.00,0.92
8858.00,0.92
8856.00,0.92
8854.00,0.92
8852.00,0.91
8850.00,0.91
8848.00,0.91
8846.00,0.90
8844.00,0.90
8842.00,0.90
8840.00,0.90
8838.00,0.90
8836.00,0.90
8834.00,0.90
8832.00,0.90
8830.00,0.91
8828.00,0.91
8826.00,0.91
8824.00,0.91
8822.00,0.91
8820.00,0.91
8818.00,0.91
8816.00,0.91
8814.00,0.91
8812.00,0.91
8810.00,0.91
8808.00,0.91
8806.00,0.91
8804.00,0.91
8802.00,0.91
8800.00,0.91
8798.00,0.91
8796.00,0.91
8794.00,0.91
8792.00,0.91
8790.00,0.91
8788.00,0.91
8786.00,0.91
8784.00,0.91
8782.00,0.91
8780.00,0.91
8778.00,0.92
8776.00,0.92
8774.00,0.92
8772.00,0.92
8770.00,0.92
8768.00,0.92
8766.00,0.92
8764.00,0.92
8762.00,0.91
8760.00,0.91
8758.00,0.90
8756.00,0.90
8754.00,0.90
8752.00,0.90
8750.00,0.90
8748.00,0.90
8746.00,0.90
8744.00,0.90
8742.00,0.91
8740.00,0.91
8738.00,0.91
8736.00,0.91
8734.00,0.91
8732.00,0.91
8730.00,0.91
8728.00,0.91
8726.00,0.91
8724.00,0.91
8722.00,0.91
8720.00,0.91
8718.00,0.91
8716.00,0.91
8714.00,0.91
8712.00,0.91
8710.00,0.91
8708.00,0.91
8706.00,0.91
8704.00,0.91
8702.00,0.91
8700.00,0.91
8698.00,0.91
8696.00,0.91
8694.00,0.91
8692.00,0.91
8690.00,0.91
8688.00,0.92
8686.00,0.92
8684.00,0.92
8682.00,0.92
8680.00,0.92
8678.00,0.92
8676.00,0.92
8674.00,0.92
8672.00,0.92
8670.00,0.92
8668.00,0.92
8666.00,0.92
8664.00,0.92
8662.00,0.92
8660.00,0.91
8658.00,0.91
8656.00,0.91
8654.00,0.91
8652.00,0.91
8650.00,0.90
8648.00,0.90
8646.00,0.90
8644.00,0.90
8642.00,0.90
8640.00,0.90
8638.00,0.91
8636.00,0.91
8634.00,0.91
8632.00,0.91
8630.00,0.91
8628.00,0.92
8626.00,0.91
8624.00,0.91
8622.00,0.91
8620.00,0.91
8618.00,0.91
8616.00,0.91
8614.00,0.91
8612.00,0.90
8610.00,0.90
8608.00,0.90
8606.00,0.90
8604.00,0.90
8602.00,0.90
8600.00,0.90
8598.00,0.90
8596.00,0.90
8594.00,0.90
8592.00,0.90
8590.00,0.90
8588.00,0.90
8586.00,0.90
8584.00,0.90
8582.00,0.90
8580.00,0.90
8578.00,0.90
8576.00,0.91
8574.00,0.91
8572.00,0.91
8570.00,0.91
8568.00,0.91
8566.00,0.91
8564.00,0.91
8562.00,0.91
8560.00,0.91
8558.00,0.91
8556.00,0.91
8554.00,0.91
8552.00,0.91
8550.00,0.91
8548.00,0.91
8546.00,0.91
8544.00,0.91
8542.00,0.91
8540.00,0.91
8538.00,0.91
8536.00,0.91
8534.00,0.91
8532.00,0.91
8530.00,0.91
8528.00,0.91
8526.00,0.90
8524.00,0.90
8522.00,0.90
8520.00,0.90
8518.00,0.90
8516.00,0.90
8514.00,0.90
8512.00,0.90
8510.00,0.90
8508.00,0.89
8506.00,0.89
8504.00,0.90
8502.00,0.90
8500.00,0.90
8498.00,0.90
8496.00,0.91
8494.00,0.91
8492.00,0.91
8490.00,0.92
8488.00,0.92
8486.00,0.91
8484.00,0.91
8482.00,0.91
8480.00,0.91
8478.00,0.91
8476.00,0.90
8474.00,0.90
8472.00,0.90
8470.00,0.90
8468.00,0.91
8466.00,0.91
8464.00,0.91
8462.00,0.91
8460.00,0.91
8458.00,0.91
8456.00,0.90
8454.00,0.90
8452.00,0.90
8450.00,0.90
8448.00,0.90
8446.00,0.90
8444.00,0.90
8442.00,0.90
8440.00,0.90
8438.00,0.90
8436.00,0.90
8434.00,0.90
8432.00,0.90
8430.00,0.90
8428.00,0.90
8426.00,0.90
8424.00,0.90
8422.00,0.90
8420.00,0.91
8418.00,0.91
8416.00,0.91
8414.00,0.91
8412.00,0.91
8410.00,0.91
8408.00,0.91
8406.00,0.91
8404.00,0.91
8402.00,0.90
8400.00,0.90
8398.00,0.90
8396.00,0.90
8394.00,0.90
8392.00,0.90
8390.00,0.90
8388.00,0.90
8386.00,0.90
8384.00,0.90
8382.00,0.90
8380.00,0.90
8378.00,0.90
8376.00,0.90
8374.00,0.90
8372.00,0.90
8370.00,0.90
8368.00,0.90
8366.00,0.90
8364.00,0.90
8362.00,0.91
8360.00,0.91
8358.00,0.91
8356.00,0.91
8354.00,0.92
8352.00,0.92
8350.00,0.92
8348.00,0.91
8346.00,0.91
8344.00,0.91
8342.00,0.91
8340.00,0.90
8338.00,0.90
8336.00,0.90
8334.00,0.90
8332.00,0.90
8330.00,0.90
8328.00,0.91
8326.00,0.91
8324.00,0.91
8322.00,0.91
8320.00,0.91
8318.00,0.91
8316.00,0.91
8314.00,0.91
8312.00,0.91
8310.00,0.91
8308.00,0.91
8306.00,0.91
8304.00,0.91
8302.00,0.92
8300.00,0.92
8298.00,0.92
8296.00,0.92
8294.00,0.92
8292.00,0.92
8290.00,0.92
8288.00,0.92
8286.00,0.92
8284.00,0.92
8282.00,0.92
8280.00,0.92
8278.00,0.92
8276.00,0.92
8274.00,0.92
8272.00,0.92
8270.00,0.92
8268.00,0.92
8266.00,0.92
8264.00,0.92
8262.00,0.92
8260.00,0.92
8258.00,0.92
8256.00,0.92
8254.00,0.92
8252.00,0.92
8250.00,0.92
8248.00,0.92
8246.00,0.92
8244.00,0.92
8242.00,0.92
8240.00,0.91
8238.00,0.91
8236.00,0.91
8234.00,0.91
8232.00,0.91
8230.00,0.91
8228.00,0.91
8226.00,0.91
8224.00,0.91
8222.00,0.91
8220.00,0.91
8218.00,0.91
8216.00,0.91
8214.00,0.91
8212.00,0.91
8210.00,0.91
8208.00,0.91
8206.00,0.91
8204.00,0.91
8202.00,0.91
8200.00,0.91
8198.00,0.91
8196.00,0.91
8194.00,0.91
8192.00,0.91
8190.00,0.90
8188.00,0.90
8186.00,0.90
8184.00,0.90
8182.00,0.90
8180.00,0.90
8178.00,0.90
8176.00,0.91
8174.00,0.91
8172.00,0.91
8170.00,0.91
8168.00,0.91
8166.00,0.91
8164.00,0.91
8162.00,0.91
8160.00,0.91
8158.00,0.91
8156.00,0.91
8154.00,0.91
8152.00,0.91
8150.00,0.91
8148.00,0.91
8146.00,0.91
8144.00,0.92
8142.00,0.92
8140.00,0.92
8138.00,0.92
8136.00,0.92
8134.00,0.92
8132.00,0.92
8130.00,0.92
8128.00,0.91
8126.00,0.91
8124.00,0.91
8122.00,0.91
8120.00,0.91
8118.00,0.91
8116.00,0.91
8114.00,0.91
8112.00,0.92
8110.00,0.92
8108.00,0.92
8106.00,0.92
8104.00,0.92
8102.00,0.92
8100.00,0.92
8098.00,0.92
8096.00,0.92
8094.00,0.92
8092.00,0.92
8090.00,0.92
8088.00,0.92
8086.00,0.92
8084.00,0.92
8082.00,0.92
8080.00,0.92
8078.00,0.92
8076.00,0.91
8074.00,0.91
8072.00,0.91
8070.00,0.91
8068.00,0.91
8066.00,0.91
8064.00,0.91
8062.00,0.91
8060.00,0.92
8058.00,0.92
8056.00,0.92
8054.00,0.92
8052.00,0.92
8050.00,0.92
8048.00,0.92
8046.00,0.92
8044.00,0.92
8042.00,0.92
8040.00,0.92
8038.00,0.92
8036.00,0.91
8034.00,0.91
8032.00,0.91
8030.00,0.91
8028.00,0.91
8026.00,0.91
8024.00,0.91
8022.00,0.91
8020.00,0.91
8018.00,0.91
8016.00,0.91
8014.00,0.92
8012.00,0.92
8010.00,0.92
8008.00,0.92
8006.00,0.92
8004.00,0.92
8002.00,0.92
8000.00,0.92
7998.00,0.91
7996.00,0.91
7994.00,0.91
7992.00,0.92
7990.00,0.92
7988.00,0.92
7986.00,0.92
7984.00,0.92
7982.00,0.92
7980.00,0.92
7978.00,0.92
7976.00,0.91
7974.00,0.91
7972.00,0.91
7970.00,0.91
7968.00,0.91
7966.00,0.91
7964.00,0.91
7962.00,0.92
7960.00,0.92
7958.00,0.92
7956.00,0.92
7954.00,0.93
7952.00,0.93
7950.00,0.93
7948.00,0.93
7946.00,0.93
7944.00,0.92
7942.00,0.92
7940.00,0.92
7938.00,0.92
7936.00,0.92
7934.00,0.92
7932.00,0.92
7930.00,0.92
7928.00,0.92
7926.00,0.92
7924.00,0.92
7922.00,0.92
7920.00,0.92
7918.00,0.92
7916.00,0.92
7914.00,0.93
7912.00,0.93
7910.00,0.93
7908.00,0.93
7906.00,0.93
7904.00,0.92
7902.00,0.92
7900.00,0.92
7898.00,0.92
7896.00,0.92
7894.00,0.92
7892.00,0.92
7890.00,0.92
7888.00,0.92
7886.00,0.92
7884.00,0.92
7882.00,0.92
7880.00,0.92
7878.00,0.92
7876.00,0.92
7874.00,0.92
7872.00,0.92
7870.00,0.93
7868.00,0.93
7866.00,0.93
7864.00,0.93
7862.00,0.93
7860.00,0.92
7858.00,0.92
7856.00,0.92
7854.00,0.92
7852.00,0.92
7850.00,0.92
7848.00,0.92
7846.00,0.93
7844.00,0.93
7842.00,0.93
7840.00,0.93
7838.00,0.93
7836.00,0.93
7834.00,0.93
7832.00,0.93
7830.00,0.93
7828.00,0.93
7826.00,0.93
7824.00,0.93
7822.00,0.93
7820.00,0.93
7818.00,0.93
7816.00,0.93
7814.00,0.93
7812.00,0.93
7810.00,0.93
7808.00,0.92
7806.00,0.92
7804.00,0.92
7802.00,0.92
7800.00,0.92
7798.00,0.92
7796.00,0.92
7794.00,0.92
7792.00,0.92
7790.00,0.92
7788.00,0.92
7786.00,0.92
7784.00,0.92
7782.00,0.92
7780.00,0.92
7778.00,0.92
7776.00,0.92
7774.00,0.92
7772.00,0.92
7770.00,0.92
7768.00,0.92
7766.00,0.92
7764.00,0.92
7762.00,0.92
7760.00,0.92
7758.00,0.92
7756.00,0.92
7754.00,0.92
7752.00,0.93
7750.00,0.93
7748.00,0.93
7746.00,0.93
7744.00,0.93
7742.00,0.93
7740.00,0.93
7738.00,0.93
7736.00,0.92
7734.00,0.92
7732.00,0.92
7730.00,0.92
7728.00,0.91
7726.00,0.91
7724.00,0.91
7722.00,0.91
7720.00,0.91
7718.00,0.91
7716.00,0.91
7714.00,0.91
7712.00,0.91
7710.00,0.92
7708.00,0.92
7706.00,0.92
7704.00,0.92
7702.00,0.92
7700.00,0.92
7698.00,0.92
7696.00,0.93
7694.00,0.92
7692.00,0.92
7690.00,0.92
7688.00,0.92
7686.00,0.92
7684.00,0.92
7682.00,0.92
7680.00,0.93
7678.00,0.93
7676.00,0.93
7674.00,0.93
7672.00,0.93
7670.00,0.93
7668.00,0.93
7666.00,0.93
7664.00,0.93
7662.00,0.93
7660.00,0.93
7658.00,0.93
7656.00,0.93
7654.00,0.93
7652.00,0.93
7650.00,0.93
7648.00,0.93
7646.00,0.93
7644.00,0.93
7642.00,0.93
7640.00,0.93
7638.00,0.93
7636.00,0.93
7634.00,0.93
7632.00,0.93
7630.00,0.92
7628.00,0.92
7626.00,0.92
7624.00,0.92
7622.00,0.92
7620.00,0.92
7618.00,0.92
7616.00,0.92
7614.00,0.92
7612.00,0.92
7610.00,0.92
7608.00,0.92
7606.00,0.92
7604.00,0.92
7602.00,0.92
7600.00,0.92
7598.00,0.92
7596.00,0.92
7594.00,0.92
7592.00,0.92
7590.00,0.92
7588.00,0.92
7586.00,0.93
7584.00,0.93
7582.00,0.93
7580.00,0.93
7578.00,0.93
7576.00,0.93
7574.00,0.93
7572.00,0.93
7570.00,0.93
7568.00,0.93
7566.00,0.92
7564.00,0.92
7562.00,0.92
7560.00,0.92
7558.00,0.92
7556.00,0.92
7554.00,0.92
7552.00,0.92
7550.00,0.92
7548.00,0.93
7546.00,0.93
7544.00,0.93
7542.00,0.93
7540.00,0.93
7538.00,0.94
7536.00,0.94
7534.00,0.94
7532.00,0.94
7530.00,0.94
7528.00,0.93
7526.00,0.93
7524.00,0.93
7522.00,0.93
7520.00,0.92
7518.00,0.92
7516.00,0.92
7514.00,0.92
7512.00,0.93
7510.00,0.93
7508.00,0.93
7506.00,0.93
7504.00,0.93
7502.00,0.93
7500.00,0.93
7498.00,0.93
7496.00,0.92
7494.00,0.92
7492.00,0.92
7490.00,0.92
7488.00,0.92
7486.00,0.92
7484.00,0.92
7482.00,0.92
7480.00,0.92
7478.00,0.91
7476.00,0.91
7474.00,0.91
7472.00,0.91
7470.00,0.91
7468.00,0.91
7466.00,0.91
7464.00,0.91
7462.00,0.91
7460.00,0.91
7458.00,0.91
7456.00,0.92
7454.00,0.92
7452.00,0.92
7450.00,0.92
7448.00,0.92
7446.00,0.92
7444.00,0.92
7442.00,0.92
7440.00,0.92
7438.00,0.92
7436.00,0.92
7434.00,0.92
7432.00,0.92
7430.00,0.92
7428.00,0.92
7426.00,0.92
7424.00,0.92
7422.00,0.92
7420.00,0.92
7418.00,0.92
7416.00,0.92
7414.00,0.92
7412.00,0.92
7410.00,0.92
7408.00,0.92
7406.00,0.92
7404.00,0.92
7402.00,0.92
7400.00,0.92
7398.00,0.92
7396.00,0.92
7394.00,0.92
7392.00,0.92
7390.00,0.91
7388.00,0.91
7386.00,0.91
7384.00,0.91
7382.00,0.91
7380.00,0.91
7378.00,0.91
7376.00,0.91
7374.00,0.91
7372.00,0.91
7370.00,0.91
7368.00,0.92
7366.00,0.92
7364.00,0.92
7362.00,0.92
7360.00,0.92
7358.00,0.92
7356.00,0.91
7354.00,0.91
7352.00,0.91
7350.00,0.91
7348.00,0.91
7346.00,0.91
7344.00,0.91
7342.00,0.91
7340.00,0.91
7338.00,0.91
7336.00,0.91
7334.00,0.91
7332.00,0.90
7330.00,0.90
7328.00,0.90
7326.00,0.90
7324.00,0.91
7322.00,0.91
7320.00,0.91
7318.00,0.91
7316.00,0.91
7314.00,0.91
7312.00,0.91
7310.00,0.91
7308.00,0.91
7306.00,0.91
7304.00,0.91
7302.00,0.91
7300.00,0.91
7298.00,0.91
7296.00,0.91
7294.00,0.91
7292.00,0.90
7290.00,0.90
7288.00,0.90
7286.00,0.90
7284.00,0.90
7282.00,0.90
7280.00,0.90
7278.00,0.90
7276.00,0.90
7274.00,0.90
7272.00,0.90
7270.00,0.90
7268.00,0.90
7266.00,0.90
7264.00,0.90
7262.00,0.90
7260.00,0.90
7258.00,0.90
7256.00,0.90
7254.00,0.91
7252.00,0.91
7250.00,0.91
7248.00,0.91
7246.00,0.91
7244.00,0.90
7242.00,0.90
7240.00,0.90
7238.00,0.90
7236.00,0.90
7234.00,0.90
7232.00,0.90
7230.00,0.90
7228.00,0.90
7226.00,0.90
7224.00,0.89
7222.00,0.89
7220.00,0.89
7218.00,0.89
7216.00,0.89
7214.00,0.88
7212.00,0.88
7210.00,0.88
7208.00,0.88
7206.00,0.88
7204.00,0.88
7202.00,0.88
7200.00,0.88
7198.00,0.88
7196.00,0.88
7194.00,0.88
7192.00,0.88
7190.00,0.88
7188.00,0.88
7186.00,0.88
7184.00,0.88
7182.00,0.88
7180.00,0.88
7178.00,0.88
7176.00,0.87
7174.00,0.87
7172.00,0.87
7170.00,0.86
7168.00,0.86
7166.00,0.86
7164.00,0.86
7162.00,0.85
7160.00,0.85
7158.00,0.85
7156.00,0.85
7154.00,0.86
7152.00,0.86
7150.00,0.86
7148.00,0.86
7146.00,0.86
7144.00,0.86
7142.00,0.86
7140.00,0.86
7138.00,0.86
7136.00,0.86
7134.00,0.86
7132.00,0.86
7130.00,0.86
7128.00,0.86
7126.00,0.86
7124.00,0.85
7122.00,0.85
7120.00,0.85
7118.00,0.85
7116.00,0.85
7114.00,0.85
7112.00,0.85
7110.00,0.85
7108.00,0.84
7106.00,0.84
7104.00,0.84
7102.00,0.84
7100.00,0.84
7098.00,0.84
7096.00,0.84
7094.00,0.84
7092.00,0.84
7090.00,0.84
7088.00,0.84
7086.00,0.84
7084.00,0.83
7082.00,0.83
7080.00,0.83
7078.00,0.83
7076.00,0.83
7074.00,0.83
7072.00,0.83
7070.00,0.83
7068.00,0.83
7066.00,0.83
7064.00,0.83
7062.00,0.83
7060.00,0.83
7058.00,0.83
7056.00,0.83
7054.00,0.83
7052.00,0.83
7050.00,0.83
7048.00,0.83
7046.00,0.83
7044.00,0.83
7042.00,0.83
7040.00,0.83
7038.00,0.83
7036.00,0.83
7034.00,0.83
7032.00,0.83
7030.00,0.83
7028.00,0.83
7026.00,0.83
7024.00,0.83
7022.00,0.82
7020.00,0.82
7018.00,0.82
7016.00,0.82
7014.00,0.82
7012.00,0.82
7010.00,0.82
7008.00,0.82
7006.00,0.82
7004.00,0.82
7002.00,0.82
7000.00,0.82
6998.00,0.82
6996.00,0.82
6994.00,0.82
6992.00,0.82
6990.00,0.82
6988.00,0.82
6986.00,0.82
6984.00,0.82
6982.00,0.82
6980.00,0.82
6978.00,0.82
6976.00,0.81
6974.00,0.81
6972.00,0.81
6970.00,0.82
6968.00,0.82
6966.00,0.82
6964.00,0.82
6962.00,0.82
6960.00,0.82
6958.00,0.82
6956.00,0.82
6954.00,0.82
6952.00,0.82
6950.00,0.82
6948.00,0.81
6946.00,0.81
6944.00,0.81
6942.00,0.81
6940.00,0.81
6938.00,0.81
6936.00,0.81
6934.00,0.81
6932.00,0.81
6930.00,0.81
6928.00,0.81
6926.00,0.81
6924.00,0.81
6922.00,0.80
6920.00,0.80
6918.00,0.80
6916.00,0.80
6914.00,0.80
6912.00,0.80
6910.00,0.80
6908.00,0.80
6906.00,0.80
6904.00,0.80
6902.00,0.80
6900.00,0.80
6898.00,0.81
6896.00,0.81
6894.00,0.81
6892.00,0.81
6890.00,0.81
6888.00,0.81
6886.00,0.81
6884.00,0.82
6882.00,0.81
6880.00,0.81
6878.00,0.81
6876.00,0.81
6874.00,0.81
6872.00,0.81
6870.00,0.81
6868.00,0.81
6866.00,0.81
6864.00,0.81
6862.00,0.81
6860.00,0.80
6858.00,0.80
6856.00,0.80
6854.00,0.80
6852.00,0.80
6850.00,0.80
6848.00,0.80
6846.00,0.81
6844.00,0.81
6842.00,0.81
6840.00,0.81
6838.00,0.81
6836.00,0.81
6834.00,0.81
6832.00,0.81
6830.00,0.81
6828.00,0.81
6826.00,0.81
6824.00,0.81
6822.00,0.82
6820.00,0.82
6818.00,0.82
6816.00,0.82
6814.00,0.82
6812.00,0.82
6810.00,0.82
6808.00,0.82
6806.00,0.82
6804.00,0.81
6802.00,0.81
6800.00,0.81
6798.00,0.81
6796.00,0.81
6794.00,0.81
6792.00,0.81
6790.00,0.81
6788.00,0.81
6786.00,0.81
6784.00,0.81
6782.00,0.81
6780.00,0.81
6778.00,0.81
6776.00,0.81
6774.00,0.82
6772.00,0.82
6770.00,0.82
6768.00,0.82
6766.00,0.82
6764.00,0.82
6762.00,0.82
6760.00,0.82
6758.00,0.82
6756.00,0.82
6754.00,0.82
6752.00,0.82
6750.00,0.82
6748.00,0.82
6746.00,0.82
6744.00,0.82
6742.00,0.82
6740.00,0.82
6738.00,0.82
6736.00,0.82
6734.00,0.82
6732.00,0.83
6730.00,0.83
6728.00,0.83
6726.00,0.83
6724.00,0.83
6722.00,0.83
6720.00,0.83
6718.00,0.83
6716.00,0.83
6714.00,0.83
6712.00,0.83
6710.00,0.83
6708.00,0.83
6706.00,0.83
6704.00,0.83
6702.00,0.83
6700.00,0.83
6698.00,0.83
6696.00,0.83
6694.00,0.82
6692.00,0.82
6690.00,0.82
6688.00,0.82
6686.00,0.82
6684.00,0.83
6682.00,0.83
6680.00,0.83
6678.00,0.83
6676.00,0.83
6674.00,0.84
6672.00,0.84
6670.00,0.84
6668.00,0.84
6666.00,0.84
6664.00,0.84
6662.00,0.84
6660.00,0.84
6658.00,0.84
6656.00,0.84
6654.00,0.84
6652.00,0.84
6650.00,0.84
6648.00,0.84
6646.00,0.84
6644.00,0.84
6642.00,0.84
6640.00,0.84
6638.00,0.84
6636.00,0.84
6634.00,0.84
6632.00,0.84
6630.00,0.84
6628.00,0.84
6626.00,0.84
6624.00,0.84
6622.00,0.84
6620.00,0.84
6618.00,0.84
6616.00,0.84
6614.00,0.84
6612.00,0.85
6610.00,0.85
6608.00,0.85
6606.00,0.85
6604.00,0.85
6602.00,0.85
6600.00,0.85
6598.00,0.85
6596.00,0.85
6594.00,0.85
6592.00,0.85
6590.00,0.85
6588.00,0.85
6586.00,0.85
6584.00,0.85
6582.00,0.85
6580.00,0.85
6578.00,0.85
6576.00,0.85
6574.00,0.85
6572.00,0.85
6570.00,0.85
6568.00,0.85
6566.00,0.86
6564.00,0.86
6562.00,0.86
6560.00,0.86
6558.00,0.86
6556.00,0.86
6554.00,0.86
6552.00,0.86
6550.00,0.86
6548.00,0.86
6546.00,0.86
6544.00,0.86
6542.00,0.86
6540.00,0.86
6538.00,0.86
6536.00,0.86
6534.00,0.86
6532.00,0.86
6530.00,0.86
6528.00,0.86
6526.00,0.86
6524.00,0.86
6522.00,0.86
6520.00,0.86
6518.00,0.86
6516.00,0.86
6514.00,0.86
6512.00,0.86
6510.00,0.86
6508.00,0.86
6506.00,0.86
6504.00,0.86
6502.00,0.86
6500.00,0.86
6498.00,0.86
6496.00,0.86
6494.00,0.86
6492.00,0.86
6490.00,0.87
6488.00,0.87
6486.00,0.87
6484.00,0.87
6482.00,0.87
6480.00,0.87
6478.00,0.87
6476.00,0.87
6474.00,0.87
6472.00,0.87
6470.00,0.87
6468.00,0.87
6466.00,0.87
6464.00,0.87
6462.00,0.87
6460.00,0.87
6458.00,0.86
6456.00,0.86
6454.00,0.86
6452.00,0.86
6450.00,0.86
6448.00,0.86
6446.00,0.86
6444.00,0.87
6442.00,0.87
6440.00,0.87
6438.00,0.87
6436.00,0.87
6434.00,0.87
6432.00,0.87
6430.00,0.87
6428.00,0.87
6426.00,0.87
6424.00,0.87
6422.00,0.87
6420.00,0.87
6418.00,0.87
6416.00,0.87
6414.00,0.87
6412.00,0.87
6410.00,0.87
6408.00,0.87
6406.00,0.87
6404.00,0.87
6402.00,0.87
6400.00,0.87
6398.00,0.87
6396.00,0.87
6394.00,0.87
6392.00,0.87
6390.00,0.87
6388.00,0.87
6386.00,0.87
6384.00,0.87
6382.00,0.87
6380.00,0.87
6378.00,0.87
6376.00,0.87
6374.00,0.87
6372.00,0.87
6370.00,0.87
6368.00,0.87
6366.00,0.87
6364.00,0.87
6362.00,0.87
6360.00,0.87
6358.00,0.87
6356.00,0.87
6354.00,0.87
6352.00,0.88
6350.00,0.88
6348.00,0.88
6346.00,0.88
6344.00,0.88
6342.00,0.88
6340.00,0.88
6338.00,0.88
6336.00,0.88
6334.00,0.88
6332.00,0.88
6330.00,0.88
6328.00,0.88
6326.00,0.88
6324.00,0.88
6322.00,0.88
6320.00,0.88
6318.00,0.88
6316.00,0.88
6314.00,0.88
6312.00,0.88
6310.00,0.88
6308.00,0.88
6306.00,0.88
6304.00,0.88
6302.00,0.88
6300.00,0.88
6298.00,0.88
6296.00,0.88
6294.00,0.88
6292.00,0.88
6290.00,0.88
6288.00,0.89
6286.00,0.89
6284.00,0.89
6282.00,0.89
6280.00,0.89
6278.00,0.89
6276.00,0.89
6274.00,0.89
6272.00,0.89
6270.00,0.89
6268.00,0.89
6266.00,0.89
6264.00,0.89
6262.00,0.89
6260.00,0.89
6258.00,0.89
6256.00,0.89
6254.00,0.89
6252.00,0.89
6250.00,0.89
6248.00,0.89
6246.00,0.89
6244.00,0.89
6242.00,0.89
6240.00,0.89
6238.00,0.89
6236.00,0.89
6234.00,0.89
6232.00,0.89
6230.00,0.89
6228.00,0.89
6226.00,0.89
6224.00,0.89
6222.00,0.89
6220.00,0.89
6218.00,0.89
6216.00,0.89
6214.00,0.89
6212.00,0.89
6210.00,0.89
6208.00,0.90
6206.00,0.90
6204.00,0.90
6202.00,0.90
6200.00,0.90
6198.00,0.90
6196.00,0.90
6194.00,0.90
6192.00,0.90
6190.00,0.90
6188.00,0.90
6186.00,0.90
6184.00,0.90
6182.00,0.90
6180.00,0.90
6178.00,0.90
6176.00,0.90
6174.00,0.90
6172.00,0.90
6170.00,0.90
6168.00,0.90
6166.00,0.90
6164.00,0.90
6162.00,0.90
6160.00,0.90
6158.00,0.90
6156.00,0.90
6154.00,0.90
6152.00,0.90
6150.00,0.90
6148.00,0.90
6146.00,0.90
6144.00,0.90
6142.00,0.90
6140.00,0.90
6138.00,0.90
6136.00,0.90
6134.00,0.91
6132.00,0.91
6130.00,0.91
6128.00,0.91
6126.00,0.91
6124.00,0.91
6122.00,0.91
6120.00,0.91
6118.00,0.91
6116.00,0.91
6114.00,0.91
6112.00,0.91
6110.00,0.91
6108.00,0.91
6106.00,0.91
6104.00,0.91
6102.00,0.91
6100.00,0.91
6098.00,0.91
6096.00,0.91
6094.00,0.91
6092.00,0.91
6090.00,0.91
6088.00,0.91
6086.00,0.91
6084.00,0.91
6082.00,0.91
6080.00,0.91
6078.00,0.91
6076.00,0.92
6074.00,0.92
6072.00,0.92
6070.00,0.92
6068.00,0.92
6066.00,0.92
6064.00,0.92
6062.00,0.92
6060.00,0.92
6058.00,0.92
6056.00,0.92
6054.00,0.92
6052.00,0.92
6050.00,0.92
6048.00,0.92
6046.00,0.92
6044.00,0.92
6042.00,0.92
6040.00,0.92
6038.00,0.92
6036.00,0.92
6034.00,0.92
6032.00,0.92
6030.00,0.92
6028.00,0.92
6026.00,0.91
6024.00,0.91
6022.00,0.91
6020.00,0.91
6018.00,0.91
6016.00,0.92
6014.00,0.92
6012.00,0.92
6010.00,0.92
6008.00,0.92
6006.00,0.92
6004.00,0.92
6002.00,0.92
6000.00,0.92
5998.00,0.92
5996.00,0.92
5994.00,0.92
5992.00,0.92
5990.00,0.92
5988.00,0.92
5986.00,0.92
5984.00,0.92
5982.00,0.92
5980.00,0.92
5978.00,0.91
5976.00,0.91
5974.00,0.91
5972.00,0.91
5970.00,0.91
5968.00,0.91
5966.00,0.91
5964.00,0.91
5962.00,0.91
5960.00,0.90
5958.00,0.90
5956.00,0.90
5954.00,0.90
5952.00,0.90
5950.00,0.89
5948.00,0.89
5946.00,0.89
5944.00,0.89
5942.00,0.89
5940.00,0.89
5938.00,0.89
5936.00,0.89
5934.00,0.89
5932.00,0.89
5930.00,0.89
5928.00,0.89
5926.00,0.89
5924.00,0.89
5922.00,0.89
5920.00,0.89
5918.00,0.89
5916.00,0.89
5914.00,0.89
5912.00,0.89
5910.00,0.89
5908.00,0.89
5906.00,0.89
5904.00,0.89
5902.00,0.89
5900.00,0.89
5898.00,0.89
5896.00,0.89
5894.00,0.89
5892.00,0.89
5890.00,0.89
5888.00,0.89
5886.00,0.89
5884.00,0.89
5882.00,0.89
5880.00,0.89
5878.00,0.89
5876.00,0.90
5874.00,0.90
5872.00,0.90
5870.00,0.90
5868.00,0.90
5866.00,0.90
5864.00,0.90
5862.00,0.90
5860.00,0.90
5858.00,0.90
5856.00,0.90
5854.00,0.90
5852.00,0.90
5850.00,0.90
5848.00,0.90
5846.00,0.90
5844.00,0.90
5842.00,0.90
5840.00,0.90
5838.00,0.90
5836.00,0.90
5834.00,0.90
5832.00,0.90
5830.00,0.90
5828.00,0.90
5826.00,0.90
5824.00,0.90
5822.00,0.90
5820.00,0.90
5818.00,0.90
5816.00,0.90
5814.00,0.90
5812.00,0.90
5810.00,0.90
5808.00,0.90
5806.00,0.90
5804.00,0.90
5802.00,0.90
5800.00,0.90
5798.00,0.90
5796.00,0.90
5794.00,0.90
5792.00,0.90
5790.00,0.90
5788.00,0.90
5786.00,0.90
5784.00,0.90
5782.00,0.89
5780.00,0.89
5778.00,0.89
5776.00,0.89
5774.00,0.89
5772.00,0.89
5770.00,0.89
5768.00,0.89
5766.00,0.89
5764.00,0.89
5762.00,0.89
5760.00,0.89
5758.00,0.90
5756.00,0.90
5754.00,0.90
5752.00,0.90
5750.00,0.90
5748.00,0.90
5746.00,0.90
5744.00,0.90
5742.00,0.90
5740.00,0.90
5738.00,0.90
5736.00,0.90
5734.00,0.90
5732.00,0.90
5730.00,0.90
5728.00,0.90
5726.00,0.90
5724.00,0.90
5722.00,0.90
5720.00,0.90
5718.00,0.90
5716.00,0.91
5714.00,0.91
5712.00,0.91
5710.00,0.91
5708.00,0.91
5706.00,0.91
5704.00,0.91
5702.00,0.91
5700.00,0.91
5698.00,0.91
5696.00,0.91
5694.00,0.91
5692.00,0.90
5690.00,0.90
5688.00,0.90
5686.00,0.90
5684.00,0.90
5682.00,0.90
5680.00,0.90
5678.00,0.90
5676.00,0.90
5674.00,0.90
5672.00,0.90
5670.00,0.91
5668.00,0.91
5666.00,0.91
5664.00,0.91
5662.00,0.91
5660.00,0.91
5658.00,0.91
5656.00,0.91
5654.00,0.91
5652.00,0.91
5650.00,0.91
5648.00,0.91
5646.00,0.91
5644.00,0.91
5642.00,0.91
5640.00,0.91
5638.00,0.91
5636.00,0.91
5634.00,0.91
5632.00,0.91
5630.00,0.91
5628.00,0.91
5626.00,0.91
5624.00,0.91
5622.00,0.92
5620.00,0.92
5618.00,0.92
5616.00,0.92
5614.00,0.92
5612.00,0.92
5610.00,0.92
5608.00,0.92
5606.00,0.92
5604.00,0.92
5602.00,0.92
5600.00,0.92
5598.00,0.92
5596.00,0.92
5594.00,0.92
5592.00,0.92
5590.00,0.92
5588.00,0.92
5586.00,0.92
5584.00,0.92
5582.00,0.92
5580.00,0.92
5578.00,0.92
5576.00,0.92
5574.00,0.92
5572.00,0.92
5570.00,0.92
5568.00,0.92
5566.00,0.92
5564.00,0.92
5562.00,0.93
5560.00,0.93
5558.00,0.93
5556.00,0.93
5554.00,0.93
5552.00,0.93
5550.00,0.93
5548.00,0.93
5546.00,0.93
5544.00,0.93
5542.00,0.93
5540.00,0.93
5538.00,0.93
5536.00,0.93
5534.00,0.93
5532.00,0.93
5530.00,0.93
5528.00,0.93
5526.00,0.93
5524.00,0.93
5522.00,0.93
5520.00,0.93
5518.00,0.93
5516.00,0.93
5514.00,0.93
5512.00,0.93
5510.00,0.93
5508.00,0.93
5506.00,0.93
5504.00,0.93
5502.00,0.93
5500.00,0.93
5498.00,0.93
5496.00,0.93
5494.00,0.93
5492.00,0.93
5490.00,0.93
5488.00,0.93
5486.00,0.93
5484.00,0.93
5482.00,0.93
5480.00,0.93
5478.00,0.93
5476.00,0.93
5474.00,0.93
5472.00,0.93
5470.00,0.93
5468.00,0.93
5466.00,0.93
5464.00,0.93
5462.00,0.93
5460.00,0.93
5458.00,0.93
5456.00,0.93
5454.00,0.93
5452.00,0.93
5450.00,0.93
5448.00,0.93
5446.00,0.93
5444.00,0.93
5442.00,0.93
5440.00,0.93
5438.00,0.93
5436.00,0.93
5434.00,0.93
5432.00,0.93
5430.00,0.93
5428.00,0.93
5426.00,0.93
5424.00,0.93
5422.00,0.94
5420.00,0.94
5418.00,0.94
5416.00,0.94
5414.00,0.94
5412.00,0.93
5410.00,0.93
5408.00,0.93
5406.00,0.93
5404.00,0.93
5402.00,0.93
5400.00,0.93
5398.00,0.94
5396.00,0.94
5394.00,0.94
5392.00,0.94
5390.00,0.94
5388.00,0.94
5386.00,0.93
5384.00,0.93
5382.00,0.93
5380.00,0.93
5378.00,0.93
5376.00,0.93
5374.00,0.93
5372.00,0.93
5370.00,0.93
5368.00,0.93
5366.00,0.93
5364.00,0.93
5362.00,0.93
5360.00,0.92
5358.00,0.92
5356.00,0.92
5354.00,0.92
5352.00,0.92
5350.00,0.91
5348.00,0.91
5346.00,0.91
5344.00,0.91
5342.00,0.91
5340.00,0.90
5338.00,0.90
5336.00,0.90
5334.00,0.90
5332.00,0.90
5330.00,0.89
5328.00,0.89
5326.00,0.89
5324.00,0.89
5322.00,0.88
5320.00,0.88
5318.00,0.87
5316.00,0.87
5314.00,0.86
5312.00,0.86
5310.00,0.85
5308.00,0.85
5306.00,0.84
5304.00,0.84
5302.00,0.83
5300.00,0.83
5298.00,0.82
5296.00,0.82
5294.00,0.82
5292.00,0.81
5290.00,0.81
5288.00,0.81
5286.00,0.80
5284.00,0.80
5282.00,0.80
5280.00,0.79
5278.00,0.79
5276.00,0.79
5274.00,0.79
5272.00,0.78
5270.00,0.78
5268.00,0.78
5266.00,0.77
5264.00,0.77
5262.00,0.77
5260.00,0.76
5258.00,0.76
5256.00,0.76
5254.00,0.75
5252.00,0.75
5250.00,0.75
5248.00,0.75
5246.00,0.74
5244.00,0.74
5242.00,0.74
5240.00,0.74
5238.00,0.74
5236.00,0.74
5234.00,0.73
5232.00,0.73
5230.00,0.73
5228.00,0.73
5226.00,0.73
5224.00,0.72
5222.00,0.72
5220.00,0.72
5218.00,0.72
5216.00,0.72
5214.00,0.72
5212.00,0.71
5210.00,0.71
5208.00,0.71
5206.00,0.71
5204.00,0.71
5202.00,0.71
5200.00,0.70
5198.00,0.70
5196.00,0.70
5194.00,0.70
5192.00,0.70
5190.00,0.70
5188.00,0.70
5186.00,0.70
5184.00,0.70
5182.00,0.70
5180.00,0.70
5178.00,0.70
5176.00,0.70
5174.00,0.70
5172.00,0.70
5170.00,0.70
5168.00,0.70
5166.00,0.70
5164.00,0.70
5162.00,0.70
5160.00,0.70
5158.00,0.70
5156.00,0.70
5154.00,0.70
5152.00,0.70
5150.00,0.70
5148.00,0.70
5146.00,0.70
5144.00,0.71
5142.00,0.71
5140.00,0.71
5138.00,0.71
5136.00,0.71
5134.00,0.71
5132.00,0.71
5130.00,0.71
5128.00,0.71
5126.00,0.72
5124.00,0.72
5122.00,0.72
5120.00,0.72
5118.00,0.72
5116.00,0.72
5114.00,0.72
5112.00,0.73
5110.00,0.73
5108.00,0.73
5106.00,0.73
5104.00,0.73
5102.00,0.73
5100.00,0.73
5098.00,0.73
5096.00,0.74
5094.00,0.74
5092.00,0.74
5090.00,0.74
5088.00,0.74
5086.00,0.74
5084.00,0.75
5082.00,0.75
5080.00,0.75
5078.00,0.75
5076.00,0.75
5074.00,0.75
5072.00,0.76
5070.00,0.76
5068.00,0.76
5066.00,0.76
5064.00,0.76
5062.00,0.76
5060.00,0.77
5058.00,0.77
5056.00,0.77
5054.00,0.77
5052.00,0.77
5050.00,0.77
5048.00,0.77
5046.00,0.78
5044.00,0.78
5042.00,0.78
5040.00,0.78
5038.00,0.78
5036.00,0.78
5034.00,0.78
5032.00,0.79
5030.00,0.79
5028.00,0.79
5026.00,0.79
5024.00,0.79
5022.00,0.79
5020.00,0.79
5018.00,0.80
5016.00,0.80
5014.00,0.80
5012.00,0.80
5010.00,0.80
5008.00,0.80
5006.00,0.81
5004.00,0.81
5002.00,0.81
5000.00,0.81
4998.00,0.81
4996.00,0.81
4994.00,0.81
4992.00,0.81
4990.00,0.81
4988.00,0.81
4986.00,0.82
4984.00,0.82
4982.00,0.82
4980.00,0.82
4978.00,0.82
4976.00,0.82
4974.00,0.82
4972.00,0.82
4970.00,0.82
4968.00,0.82
4966.00,0.82
4964.00,0.82
4962.00,0.82
4960.00,0.83
4958.00,0.83
4956.00,0.83
4954.00,0.83
4952.00,0.83
4950.00,0.83
4948.00,0.83
4946.00,0.83
4944.00,0.83
4942.00,0.83
4940.00,0.83
4938.00,0.83
4936.00,0.84
4934.00,0.84
4932.00,0.84
4930.00,0.84
4928.00,0.84
4926.00,0.84
4924.00,0.84
4922.00,0.84
4920.00,0.84
4918.00,0.84
4916.00,0.84
4914.00,0.84
4912.00,0.84
4910.00,0.85
4908.00,0.85
4906.00,0.85
4904.00,0.85
4902.00,0.85
4900.00,0.85
4898.00,0.85
4896.00,0.85
4894.00,0.85
4892.00,0.85
4890.00,0.85
4888.00,0.85
4886.00,0.85
4884.00,0.85
4882.00,0.85
4880.00,0.85
4878.00,0.85
4876.00,0.85
4874.00,0.85
4872.00,0.85
4870.00,0.85
4868.00,0.85
4866.00,0.85
4864.00,0.85
4862.00,0.85
4860.00,0.85
4858.00,0.85
4856.00,0.86
4854.00,0.86
4852.00,0.86
4850.00,0.86
4848.00,0.86
4846.00,0.86
4844.00,0.86
4842.00,0.86
4840.00,0.86
4838.00,0.86
4836.00,0.86
4834.00,0.86
4832.00,0.86
4830.00,0.86
4828.00,0.86
4826.00,0.86
4824.00,0.86
4822.00,0.86
4820.00,0.86
4818.00,0.86
4816.00,0.86
4814.00,0.86
4812.00,0.86
4810.00,0.86
4808.00,0.87
4806.00,0.87
4804.00,0.87
4802.00,0.87
4800.00,0.87
4798.00,0.87
4796.00,0.87
4794.00,0.87
4792.00,0.87
4790.00,0.87
4788.00,0.87
4786.00,0.88
4784.00,0.88
4782.00,0.88
4780.00,0.88
4778.00,0.88
4776.00,0.88
4774.00,0.88
4772.00,0.88
4770.00,0.88
4768.00,0.88
4766.00,0.88
4764.00,0.88
4762.00,0.89
4760.00,0.89
4758.00,0.89
4756.00,0.89
4754.00,0.89
4752.00,0.89
4750.00,0.89
4748.00,0.89
4746.00,0.89
4744.00,0.89
4742.00,0.89
4740.00,0.89
4738.00,0.89
4736.00,0.89
4734.00,0.90
4732.00,0.90
4730.00,0.90
4728.00,0.90
4726.00,0.90
4724.00,0.90
4722.00,0.90
4720.00,0.90
4718.00,0.90
4716.00,0.90
4714.00,0.90
4712.00,0.90
4710.00,0.90
4708.00,0.90
4706.00,0.90
4704.00,0.91
4702.00,0.91
4700.00,0.91
4698.00,0.91
4696.00,0.91
4694.00,0.91
4692.00,0.91
4690.00,0.91
4688.00,0.91
4686.00,0.91
4684.00,0.91
4682.00,0.91
4680.00,0.91
4678.00,0.91
4676.00,0.91
4674.00,0.91
4672.00,0.91
4670.00,0.91
4668.00,0.91
4666.00,0.91
4664.00,0.91
4662.00,0.91
4660.00,0.92
4658.00,0.92
4656.00,0.92
4654.00,0.92
4652.00,0.92
4650.00,0.92
4648.00,0.92
4646.00,0.92
4644.00,0.92
4642.00,0.92
4640.00,0.92
4638.00,0.92
4636.00,0.92
4634.00,0.92
4632.00,0.92
4630.00,0.92
4628.00,0.92
4626.00,0.93
4624.00,0.93
4622.00,0.93
4620.00,0.93
4618.00,0.93
4616.00,0.93
4614.00,0.93
4612.00,0.93
4610.00,0.93
4608.00,0.93
4606.00,0.93
4604.00,0.93
4602.00,0.93
4600.00,0.93
4598.00,0.93
4596.00,0.93
4594.00,0.93
4592.00,0.93
4590.00,0.93
4588.00,0.93
4586.00,0.93
4584.00,0.93
4582.00,0.93
4580.00,0.93
4578.00,0.93
4576.00,0.93
4574.00,0.93
4572.00,0.93
4570.00,0.93
4568.00,0.93
4566.00,0.93
4564.00,0.93
4562.00,0.93
4560.00,0.93
4558.00,0.93
4556.00,0.93
4554.00,0.93
4552.00,0.93
4550.00,0.93
4548.00,0.93
4546.00,0.93
4544.00,0.93
4542.00,0.93
4540.00,0.93
4538.00,0.93
4536.00,0.93
4534.00,0.93
4532.00,0.93
4530.00,0.93
4528.00,0.93
4526.00,0.93
4524.00,0.93
4522.00,0.93
4520.00,0.93
4518.00,0.93
4516.00,0.93
4514.00,0.93
4512.00,0.93
4510.00,0.93
4508.00,0.93
4506.00,0.93
4504.00,0.93
4502.00,0.93
4500.00,0.93
4498.00,0.94
4496.00,0.94
4494.00,0.94
4492.00,0.94
4490.00,0.94
4488.00,0.94
4486.00,0.94
4484.00,0.93
4482.00,0.93
4480.00,0.93
4478.00,0.93
4476.00,0.93
4474.00,0.93
4472.00,0.93
4470.00,0.93
4468.00,0.93
4466.00,0.93
4464.00,0.93
4462.00,0.93
4460.00,0.93
4458.00,0.93
4456.00,0.92
4454.00,0.92
4452.00,0.92
4450.00,0.92
4448.00,0.91
4446.00,0.91
4444.00,0.91
4442.00,0.90
4440.00,0.90
4438.00,0.89
4436.00,0.89
4434.00,0.88
4432.00,0.88
4430.00,0.88
4428.00,0.87
4426.00,0.87
4424.00,0.86
4422.00,0.86
4420.00,0.86
4418.00,0.85
4416.00,0.85
4414.00,0.85
4412.00,0.85
4410.00,0.85
4408.00,0.85
4406.00,0.85
4404.00,0.85
4402.00,0.85
4400.00,0.85
4398.00,0.85
4396.00,0.85
4394.00,0.86
4392.00,0.86
4390.00,0.86
4388.00,0.87
4386.00,0.87
4384.00,0.87
4382.00,0.88
4380.00,0.88
4378.00,0.88
4376.00,0.88
4374.00,0.88
4372.00,0.88
4370.00,0.88
4368.00,0.88
4366.00,0.88
4364.00,0.88
4362.00,0.88
4360.00,0.88
4358.00,0.87
4356.00,0.87
4354.00,0.87
4352.00,0.86
4350.00,0.86
4348.00,0.86
4346.00,0.86
4344.00,0.85
4342.00,0.85
4340.00,0.85
4338.00,0.85
4336.00,0.85
4334.00,0.85
4332.00,0.85
4330.00,0.86
4328.00,0.86
4326.00,0.87
4324.00,0.87
4322.00,0.87
4320.00,0.88
4318.00,0.88
4316.00,0.89
4314.00,0.89
4312.00,0.89
4310.00,0.90
4308.00,0.90
4306.00,0.91
4304.00,0.91
4302.00,0.91
4300.00,0.91
4298.00,0.92
4296.00,0.92
4294.00,0.92
4292.00,0.92
4290.00,0.92
4288.00,0.92
4286.00,0.92
4284.00,0.92
4282.00,0.92
4280.00,0.92
4278.00,0.92
4276.00,0.92
4274.00,0.92
4272.00,0.92
4270.00,0.92
4268.00,0.91
4266.00,0.91
4264.00,0.91
4262.00,0.91
4260.00,0.91
4258.00,0.91
4256.00,0.91
4254.00,0.91
4252.00,0.91
4250.00,0.91
4248.00,0.91
4246.00,0.91
4244.00,0.91
4242.00,0.92
4240.00,0.92
4238.00,0.92
4236.00,0.92
4234.00,0.92
4232.00,0.93
4230.00,0.93
4228.00,0.93
4226.00,0.93
4224.00,0.93
4222.00,0.93
4220.00,0.93
4218.00,0.94
4216.00,0.94
4214.00,0.94
4212.00,0.94
4210.00,0.94
4208.00,0.94
4206.00,0.93
4204.00,0.93
4202.00,0.93
4200.00,0.93
4198.00,0.93
4196.00,0.93
4194.00,0.93
4192.00,0.93
4190.00,0.93
4188.00,0.93
4186.00,0.93
4184.00,0.94
4182.00,0.94
4180.00,0.94
4178.00,0.94
4176.00,0.94
4174.00,0.93
4172.00,0.93
4170.00,0.93
4168.00,0.93
4166.00,0.93
4164.00,0.93
4162.00,0.93
4160.00,0.93
4158.00,0.93
4156.00,0.93
4154.00,0.93
4152.00,0.93
4150.00,0.93
4148.00,0.93
4146.00,0.93
4144.00,0.93
4142.00,0.93
4140.00,0.93
4138.00,0.93
4136.00,0.93
4134.00,0.93
4132.00,0.93
4130.00,0.93
4128.00,0.93
4126.00,0.93
4124.00,0.93
4122.00,0.93
4120.00,0.93
4118.00,0.93
4116.00,0.93
4114.00,0.93
4112.00,0.93
4110.00,0.93
4108.00,0.93
4106.00,0.93
4104.00,0.93
4102.00,0.93
4100.00,0.93
4098.00,0.93
4096.00,0.93
4094.00,0.92
4092.00,0.92
4090.00,0.92
4088.00,0.92
4086.00,0.92
4084.00,0.92
4082.00,0.92
4080.00,0.92
4078.00,0.91
4076.00,0.91
4074.00,0.91
4072.00,0.91
4070.00,0.90
4068.00,0.90
4066.00,0.90
4064.00,0.90
4062.00,0.90
4060.00,0.90
4058.00,0.91
4056.00,0.91
4054.00,0.91
4052.00,0.91
4050.00,0.91
4048.00,0.91
4046.00,0.91
4044.00,0.91
4042.00,0.91
4040.00,0.91
4038.00,0.91
4036.00,0.91
4034.00,0.91
4032.00,0.91
4030.00,0.91
4028.00,0.91
4026.00,0.91
4024.00,0.91
4022.00,0.92
4020.00,0.92
4018.00,0.92
4016.00,0.92
4014.00,0.92
4012.00,0.93
4010.00,0.93
4008.00,0.93
4006.00,0.93
4004.00,0.93
4002.00,0.93
4000.00,0.93
