创建为新数据集,样品 1743 用户 Administrator 日期 星期三, 三月 15 2017
cm-1,%T
10000.00,0.87
9998.00,0.86
9996.00,0.86
9994.00,0.86
9992.00,0.87
9990.00,0.87
9988.00,0.87
9986.00,0.87
9984.00,0.87
9982.00,0.87
9980.00,0.87
9978.00,0.87
9976.00,0.86
9974.00,0.86
9972.00,0.85
9970.00,0.85
9968.00,0.84
9966.00,0.84
9964.00,0.84
9962.00,0.84
9960.00,0.84
9958.00,0.84
9956.00,0.84
9954.00,0.85
9952.00,0.85
9950.00,0.85
9948.00,0.86
9946.00,0.86
9944.00,0.86
9942.00,0.86
9940.00,0.85
9938.00,0.85
9936.00,0.85
9934.00,0.85
9932.00,0.85
9930.00,0.85
9928.00,0.85
9926.00,0.85
9924.00,0.86
9922.00,0.86
9920.00,0.86
9918.00,0.86
9916.00,0.86
9914.00,0.86
9912.00,0.85
9910.00,0.85
9908.00,0.85
9906.00,0.85
9904.00,0.85
9902.00,0.85
9900.00,0.85
9898.00,0.85
9896.00,0.86
9894.00,0.86
9892.00,0.86
9890.00,0.86
9888.00,0.86
9886.00,0.86
9884.00,0.86
9882.00,0.86
9880.00,0.85
9878.00,0.85
9876.00,0.84
9874.00,0.84
9872.00,0.84
9870.00,0.84
9868.00,0.83
9866.00,0.83
9864.00,0.83
9862.00,0.83
9860.00,0.83
9858.00,0.83
9856.00,0.83
9854.00,0.83
9852.00,0.83
9850.00,0.83
9848.00,0.82
9846.00,0.82
9844.00,0.82
9842.00,0.82
9840.00,0.83
9838.00,0.83
9836.00,0.84
9834.00,0.84
9832.00,0.85
9830.00,0.85
9828.00,0.86
9826.00,0.86
9824.00,0.86
9822.00,0.87
9820.00,0.87
9818.00,0.87
9816.00,0.87
9814.00,0.87
9812.00,0.86
9810.00,0.86
9808.00,0.85
9806.00,0.85
9804.00,0.84
9802.00,0.84
9800.00,0.83
9798.00,0.83
9796.00,0.83
9794.00,0.83
9792.00,0.84
9790.00,0.84
9788.00,0.84
9786.00,0.85
9784.00,0.85
9782.00,0.85
9780.00,0.85
9778.00,0.85
9776.00,0.85
9774.00,0.85
9772.00,0.85
9770.00,0.85
9768.00,0.86
9766.00,0.86
9764.00,0.86
9762.00,0.86
9760.00,0.86
9758.00,0.86
9756.00,0.86
9754.00,0.85
9752.00,0.85
9750.00,0.85
9748.00,0.84
9746.00,0.84
9744.00,0.84
9742.00,0.84
9740.00,0.84
9738.00,0.84
9736.00,0.83
9734.00,0.83
9732.00,0.83
9730.00,0.83
9728.00,0.83
9726.00,0.83
9724.00,0.84
9722.00,0.84
9720.00,0.85
9718.00,0.85
9716.00,0.86
9714.00,0.86
9712.00,0.87
9710.00,0.87
9708.00,0.87
9706.00,0.87
9704.00,0.87
9702.00,0.87
9700.00,0.87
9698.00,0.87
9696.00,0.86
9694.00,0.86
9692.00,0.86
9690.00,0.86
9688.00,0.85
9686.00,0.85
9684.00,0.85
9682.00,0.86
9680.00,0.86
9678.00,0.86
9676.00,0.86
9674.00,0.87
9672.00,0.87
9670.00,0.87
9668.00,0.87
9666.00,0.87
9664.00,0.87
9662.00,0.87
9660.00,0.86
9658.00,0.86
9656.00,0.86
9654.00,0.86
9652.00,0.86
9650.00,0.85
9648.00,0.85
9646.00,0.85
9644.00,0.85
9642.00,0.84
9640.00,0.84
9638.00,0.84
9636.00,0.84
9634.00,0.84
9632.00,0.84
9630.00,0.84
9628.00,0.84
9626.00,0.84
9624.00,0.84
9622.00,0.84
9620.00,0.85
9618.00,0.85
9616.00,0.85
9614.00,0.85
9612.00,0.85
9610.00,0.85
9608.00,0.85
9606.00,0.85
9604.00,0.85
9602.00,0.85
9600.00,0.85
9598.00,0.85
9596.00,0.84
9594.00,0.84
9592.00,0.84
9590.00,0.84
9588.00,0.83
9586.00,0.83
9584.00,0.83
9582.00,0.82
9580.00,0.82
9578.00,0.82
9576.00,0.82
9574.00,0.82
9572.00,0.82
9570.00,0.82
9568.00,0.83
9566.00,0.83
9564.00,0.83
9562.00,0.83
9560.00,0.83
9558.00,0.83
9556.00,0.83
9554.00,0.84
9552.00,0.84
9550.00,0.85
9548.00,0.85
9546.00,0.86
9544.00,0.87
9542.00,0.87
9540.00,0.87
9538.00,0.87
9536.00,0.87
9534.00,0.87
9532.00,0.87
9530.00,0.87
9528.00,0.86
9526.00,0.86
9524.00,0.86
9522.00,0.85
9520.00,0.85
9518.00,0.85
9516.00,0.85
9514.00,0.86
9512.00,0.86
9510.00,0.86
9508.00,0.86
9506.00,0.87
9504.00,0.87
9502.00,0.87
9500.00,0.86
9498.00,0.86
9496.00,0.86
9494.00,0.85
9492.00,0.85
9490.00,0.85
9488.00,0.85
9486.00,0.84
9484.00,0.84
9482.00,0.84
9480.00,0.84
9478.00,0.84
9476.00,0.84
9474.00,0.83
9472.00,0.83
9470.00,0.83
9468.00,0.83
9466.00,0.83
9464.00,0.82
9462.00,0.82
9460.00,0.83
9458.00,0.83
9456.00,0.84
9454.00,0.85
9452.00,0.85
9450.00,0.86
9448.00,0.86
9446.00,0.86
9444.00,0.86
9442.00,0.86
9440.00,0.85
9438.00,0.85
9436.00,0.85
9434.00,0.84
9432.00,0.84
9430.00,0.84
9428.00,0.84
9426.00,0.84
9424.00,0.84
9422.00,0.84
9420.00,0.84
9418.00,0.84
9416.00,0.84
9414.00,0.85
9412.00,0.85
9410.00,0.85
9408.00,0.86
9406.00,0.86
9404.00,0.86
9402.00,0.86
9400.00,0.86
9398.00,0.85
9396.00,0.85
9394.00,0.85
9392.00,0.84
9390.00,0.84
9388.00,0.84
9386.00,0.84
9384.00,0.84
9382.00,0.84
9380.00,0.84
9378.00,0.84
9376.00,0.84
9374.00,0.84
9372.00,0.84
9370.00,0.84
9368.00,0.84
9366.00,0.84
9364.00,0.84
9362.00,0.84
9360.00,0.84
9358.00,0.84
9356.00,0.84
9354.00,0.84
9352.00,0.84
9350.00,0.84
9348.00,0.84
9346.00,0.84
9344.00,0.84
9342.00,0.84
9340.00,0.85
9338.00,0.85
9336.00,0.85
9334.00,0.86
9332.00,0.86
9330.00,0.86
9328.00,0.87
9326.00,0.87
9324.00,0.87
9322.00,0.86
9320.00,0.86
9318.00,0.86
9316.00,0.85
9314.00,0.85
9312.00,0.85
9310.00,0.85
9308.00,0.85
9306.00,0.85
9304.00,0.84
9302.00,0.84
9300.00,0.84
9298.00,0.84
9296.00,0.84
9294.00,0.84
9292.00,0.84
9290.00,0.84
9288.00,0.84
9286.00,0.84
9284.00,0.83
9282.00,0.84
9280.00,0.84
9278.00,0.84
9276.00,0.84
9274.00,0.84
9272.00,0.84
9270.00,0.85
9268.00,0.85
9266.00,0.85
9264.00,0.85
9262.00,0.85
9260.00,0.85
9258.00,0.85
9256.00,0.85
9254.00,0.84
9252.00,0.84
9250.00,0.84
9248.00,0.84
9246.00,0.84
9244.00,0.84
9242.00,0.84
9240.00,0.84
9238.00,0.84
9236.00,0.84
9234.00,0.84
9232.00,0.84
9230.00,0.84
9228.00,0.84
9226.00,0.83
9224.00,0.83
9222.00,0.83
9220.00,0.83
9218.00,0.83
9216.00,0.83
9214.00,0.83
9212.00,0.84
9210.00,0.84
9208.00,0.84
9206.00,0.85
9204.00,0.85
9202.00,0.85
9200.00,0.85
9198.00,0.85
9196.00,0.85
9194.00,0.85
9192.00,0.84
9190.00,0.84
9188.00,0.84
9186.00,0.84
9184.00,0.84
9182.00,0.85
9180.00,0.85
9178.00,0.85
9176.00,0.85
9174.00,0.86
9172.00,0.86
9170.00,0.86
9168.00,0.86
9166.00,0.86
9164.00,0.86
9162.00,0.85
9160.00,0.84
9158.00,0.84
9156.00,0.83
9154.00,0.83
9152.00,0.83
9150.00,0.82
9148.00,0.83
9146.00,0.83
9144.00,0.83
9142.00,0.83
9140.00,0.83
9138.00,0.84
9136.00,0.84
9134.00,0.84
9132.00,0.84
9130.00,0.84
9128.00,0.84
9126.00,0.84
9124.00,0.84
9122.00,0.84
9120.00,0.84
9118.00,0.85
9116.00,0.85
9114.00,0.85
9112.00,0.85
9110.00,0.85
9108.00,0.85
9106.00,0.85
9104.00,0.85
9102.00,0.85
9100.00,0.85
9098.00,0.85
9096.00,0.85
9094.00,0.85
9092.00,0.85
9090.00,0.85
9088.00,0.85
9086.00,0.85
9084.00,0.85
9082.00,0.85
9080.00,0.85
9078.00,0.85
9076.00,0.85
9074.00,0.85
9072.00,0.85
9070.00,0.85
9068.00,0.85
9066.00,0.85
9064.00,0.85
9062.00,0.85
9060.00,0.85
9058.00,0.85
9056.00,0.85
9054.00,0.84
9052.00,0.84
9050.00,0.84
9048.00,0.84
9046.00,0.84
9044.00,0.84
9042.00,0.84
9040.00,0.84
9038.00,0.84
9036.00,0.84
9034.00,0.84
9032.00,0.85
9030.00,0.85
9028.00,0.85
9026.00,0.85
9024.00,0.85
9022.00,0.85
9020.00,0.85
9018.00,0.85
9016.00,0.85
9014.00,0.85
9012.00,0.84
9010.00,0.84
9008.00,0.85
9006.00,0.85
9004.00,0.85
9002.00,0.85
9000.00,0.85
8998.00,0.86
8996.00,0.86
8994.00,0.86
8992.00,0.87
8990.00,0.87
8988.00,0.87
8986.00,0.87
8984.00,0.87
8982.00,0.87
8980.00,0.87
8978.00,0.86
8976.00,0.86
8974.00,0.86
8972.00,0.86
8970.00,0.85
8968.00,0.85
8966.00,0.85
8964.00,0.85
8962.00,0.85
8960.00,0.85
8958.00,0.85
8956.00,0.85
8954.00,0.85
8952.00,0.86
8950.00,0.86
8948.00,0.86
8946.00,0.86
8944.00,0.85
8942.00,0.85
8940.00,0.85
8938.00,0.85
8936.00,0.84
8934.00,0.84
8932.00,0.84
8930.00,0.84
8928.00,0.84
8926.00,0.85
8924.00,0.85
8922.00,0.85
8920.00,0.85
8918.00,0.85
8916.00,0.85
8914.00,0.85
8912.00,0.85
8910.00,0.85
8908.00,0.85
8906.00,0.86
8904.00,0.86
8902.00,0.86
8900.00,0.85
8898.00,0.85
8896.00,0.85
8894.00,0.84
8892.00,0.84
8890.00,0.84
8888.00,0.83
8886.00,0.83
8884.00,0.83
8882.00,0.84
8880.00,0.84
8878.00,0.84
8876.00,0.85
8874.00,0.85
8872.00,0.85
8870.00,0.85
8868.00,0.85
8866.00,0.85
8864.00,0.85
8862.00,0.85
8860.00,0.84
8858.00,0.84
8856.00,0.84
8854.00,0.83
8852.00,0.83
8850.00,0.84
8848.00,0.84
8846.00,0.84
8844.00,0.84
8842.00,0.84
8840.00,0.84
8838.00,0.84
8836.00,0.84
8834.00,0.83
8832.00,0.83
8830.00,0.83
8828.00,0.83
8826.00,0.83
8824.00,0.83
8822.00,0.84
8820.00,0.84
8818.00,0.84
8816.00,0.84
8814.00,0.84
8812.00,0.84
8810.00,0.84
8808.00,0.84
8806.00,0.84
8804.00,0.84
8802.00,0.84
8800.00,0.84
8798.00,0.84
8796.00,0.84
8794.00,0.84
8792.00,0.84
8790.00,0.84
8788.00,0.84
8786.00,0.84
8784.00,0.84
8782.00,0.84
8780.00,0.84
8778.00,0.84
8776.00,0.84
8774.00,0.84
8772.00,0.85
8770.00,0.85
8768.00,0.85
8766.00,0.85
8764.00,0.85
8762.00,0.84
8760.00,0.84
8758.00,0.84
8756.00,0.83
8754.00,0.83
8752.00,0.83
8750.00,0.83
8748.00,0.83
8746.00,0.83
8744.00,0.83
8742.00,0.84
8740.00,0.84
8738.00,0.84
8736.00,0.84
8734.00,0.84
8732.00,0.84
8730.00,0.85
8728.00,0.85
8726.00,0.85
8724.00,0.85
8722.00,0.86
8720.00,0.86
8718.00,0.86
8716.00,0.86
8714.00,0.86
8712.00,0.86
8710.00,0.86
8708.00,0.86
8706.00,0.85
8704.00,0.85
8702.00,0.84
8700.00,0.84
8698.00,0.84
8696.00,0.84
8694.00,0.84
8692.00,0.84
8690.00,0.84
8688.00,0.84
8686.00,0.84
8684.00,0.83
8682.00,0.83
8680.00,0.83
8678.00,0.83
8676.00,0.83
8674.00,0.83
8672.00,0.84
8670.00,0.84
8668.00,0.84
8666.00,0.84
8664.00,0.84
8662.00,0.84
8660.00,0.83
8658.00,0.83
8656.00,0.83
8654.00,0.83
8652.00,0.83
8650.00,0.83
8648.00,0.83
8646.00,0.84
8644.00,0.84
8642.00,0.84
8640.00,0.85
8638.00,0.85
8636.00,0.85
8634.00,0.85
8632.00,0.85
8630.00,0.85
8628.00,0.85
8626.00,0.85
8624.00,0.85
8622.00,0.85
8620.00,0.84
8618.00,0.84
8616.00,0.84
8614.00,0.84
8612.00,0.84
8610.00,0.83
8608.00,0.83
8606.00,0.83
8604.00,0.83
8602.00,0.83
8600.00,0.83
8598.00,0.83
8596.00,0.84
8594.00,0.84
8592.00,0.84
8590.00,0.84
8588.00,0.84
8586.00,0.84
8584.00,0.84
8582.00,0.84
8580.00,0.84
8578.00,0.84
8576.00,0.84
8574.00,0.84
8572.00,0.84
8570.00,0.84
8568.00,0.84
8566.00,0.84
8564.00,0.84
8562.00,0.83
8560.00,0.83
8558.00,0.83
8556.00,0.83
8554.00,0.82
8552.00,0.82
8550.00,0.82
8548.00,0.82
8546.00,0.83
8544.00,0.83
8542.00,0.83
8540.00,0.84
8538.00,0.84
8536.00,0.84
8534.00,0.85
8532.00,0.85
8530.00,0.85
8528.00,0.85
8526.00,0.85
8524.00,0.85
8522.00,0.85
8520.00,0.85
8518.00,0.84
8516.00,0.84
8514.00,0.84
8512.00,0.84
8510.00,0.84
8508.00,0.84
8506.00,0.84
8504.00,0.84
8502.00,0.84
8500.00,0.84
8498.00,0.84
8496.00,0.84
8494.00,0.84
8492.00,0.84
8490.00,0.84
8488.00,0.84
8486.00,0.85
8484.00,0.85
8482.00,0.85
8480.00,0.85
8478.00,0.84
8476.00,0.84
8474.00,0.84
8472.00,0.84
8470.00,0.84
8468.00,0.84
8466.00,0.84
8464.00,0.84
8462.00,0.84
8460.00,0.84
8458.00,0.84
8456.00,0.84
8454.00,0.84
8452.00,0.84
8450.00,0.84
8448.00,0.84
8446.00,0.84
8444.00,0.84
8442.00,0.84
8440.00,0.84
8438.00,0.84
8436.00,0.84
8434.00,0.84
8432.00,0.84
8430.00,0.84
8428.00,0.84
8426.00,0.84
8424.00,0.84
8422.00,0.84
8420.00,0.84
8418.00,0.84
8416.00,0.85
8414.00,0.85
8412.00,0.85
8410.00,0.85
8408.00,0.85
8406.00,0.85
8404.00,0.85
8402.00,0.84
8400.00,0.84
8398.00,0.84
8396.00,0.83
8394.00,0.83
8392.00,0.83
8390.00,0.83
8388.00,0.83
8386.00,0.83
8384.00,0.83
8382.00,0.83
8380.00,0.84
8378.00,0.84
8376.00,0.84
8374.00,0.84
8372.00,0.84
8370.00,0.84
8368.00,0.84
8366.00,0.84
8364.00,0.84
8362.00,0.84
8360.00,0.84
8358.00,0.84
8356.00,0.84
8354.00,0.84
8352.00,0.84
8350.00,0.84
8348.00,0.85
8346.00,0.85
8344.00,0.85
8342.00,0.85
8340.00,0.85
8338.00,0.85
8336.00,0.84
8334.00,0.84
8332.00,0.84
8330.00,0.84
8328.00,0.84
8326.00,0.84
8324.00,0.84
8322.00,0.84
8320.00,0.84
8318.00,0.84
8316.00,0.84
8314.00,0.84
8312.00,0.84
8310.00,0.85
8308.00,0.85
8306.00,0.84
8304.00,0.84
8302.00,0.84
8300.00,0.84
8298.00,0.84
8296.00,0.84
8294.00,0.84
8292.00,0.84
8290.00,0.84
8288.00,0.84
8286.00,0.84
8284.00,0.84
8282.00,0.84
8280.00,0.84
8278.00,0.83
8276.00,0.83
8274.00,0.83
8272.00,0.83
8270.00,0.83
8268.00,0.83
8266.00,0.83
8264.00,0.84
8262.00,0.84
8260.00,0.84
8258.00,0.84
8256.00,0.84
8254.00,0.85
8252.00,0.84
8250.00,0.84
8248.00,0.84
8246.00,0.84
8244.00,0.84
8242.00,0.84
8240.00,0.84
8238.00,0.84
8236.00,0.84
8234.00,0.84
8232.00,0.84
8230.00,0.84
8228.00,0.84
8226.00,0.84
8224.00,0.84
8222.00,0.85
8220.00,0.85
8218.00,0.85
8216.00,0.85
8214.00,0.85
8212.00,0.85
8210.00,0.84
8208.00,0.84
8206.00,0.84
8204.00,0.84
8202.00,0.84
8200.00,0.83
8198.00,0.83
8196.00,0.83
8194.00,0.83
8192.00,0.83
8190.00,0.83
8188.00,0.83
8186.00,0.83
8184.00,0.84
8182.00,0.84
8180.00,0.84
8178.00,0.84
8176.00,0.84
8174.00,0.84
8172.00,0.84
8170.00,0.84
8168.00,0.84
8166.00,0.84
8164.00,0.85
8162.00,0.85
8160.00,0.85
8158.00,0.85
8156.00,0.85
8154.00,0.85
8152.00,0.85
8150.00,0.85
8148.00,0.85
8146.00,0.85
8144.00,0.85
8142.00,0.85
8140.00,0.85
8138.00,0.85
8136.00,0.85
8134.00,0.85
8132.00,0.85
8130.00,0.85
8128.00,0.85
8126.00,0.85
8124.00,0.85
8122.00,0.85
8120.00,0.85
8118.00,0.84
8116.00,0.84
8114.00,0.84
8112.00,0.84
8110.00,0.84
8108.00,0.84
8106.00,0.84
8104.00,0.84
8102.00,0.84
8100.00,0.84
8098.00,0.84
8096.00,0.84
8094.00,0.84
8092.00,0.84
8090.00,0.84
8088.00,0.84
8086.00,0.84
8084.00,0.84
8082.00,0.84
8080.00,0.84
8078.00,0.84
8076.00,0.85
8074.00,0.85
8072.00,0.85
8070.00,0.85
8068.00,0.85
8066.00,0.85
8064.00,0.85
8062.00,0.86
8060.00,0.86
8058.00,0.86
8056.00,0.86
8054.00,0.86
8052.00,0.86
8050.00,0.86
8048.00,0.85
8046.00,0.85
8044.00,0.85
8042.00,0.85
8040.00,0.85
8038.00,0.85
8036.00,0.85
8034.00,0.85
8032.00,0.85
8030.00,0.85
8028.00,0.85
8026.00,0.85
8024.00,0.85
8022.00,0.85
8020.00,0.85
8018.00,0.85
8016.00,0.85
8014.00,0.85
8012.00,0.85
8010.00,0.85
8008.00,0.85
8006.00,0.85
8004.00,0.85
8002.00,0.85
8000.00,0.85
7998.00,0.85
7996.00,0.85
7994.00,0.85
7992.00,0.85
7990.00,0.85
7988.00,0.85
7986.00,0.86
7984.00,0.86
7982.00,0.86
7980.00,0.86
7978.00,0.86
7976.00,0.86
7974.00,0.86
7972.00,0.86
7970.00,0.86
7968.00,0.86
7966.00,0.85
7964.00,0.85
7962.00,0.85
7960.00,0.85
7958.00,0.85
7956.00,0.85
7954.00,0.85
7952.00,0.85
7950.00,0.85
7948.00,0.85
7946.00,0.85
7944.00,0.85
7942.00,0.85
7940.00,0.85
7938.00,0.85
7936.00,0.85
7934.00,0.85
7932.00,0.85
7930.00,0.85
7928.00,0.85
7926.00,0.85
7924.00,0.85
7922.00,0.85
7920.00,0.84
7918.00,0.84
7916.00,0.84
7914.00,0.84
7912.00,0.84
7910.00,0.85
7908.00,0.85
7906.00,0.85
7904.00,0.85
7902.00,0.85
7900.00,0.85
7898.00,0.85
7896.00,0.85
7894.00,0.85
7892.00,0.85
7890.00,0.85
7888.00,0.85
7886.00,0.85
7884.00,0.85
7882.00,0.85
7880.00,0.85
7878.00,0.85
7876.00,0.85
7874.00,0.85
7872.00,0.86
7870.00,0.86
7868.00,0.86
7866.00,0.86
7864.00,0.86
7862.00,0.86
7860.00,0.86
7858.00,0.86
7856.00,0.86
7854.00,0.86
7852.00,0.85
7850.00,0.86
7848.00,0.86
7846.00,0.86
7844.00,0.86
7842.00,0.86
7840.00,0.86
7838.00,0.86
7836.00,0.86
7834.00,0.86
7832.00,0.86
7830.00,0.85
7828.00,0.85
7826.00,0.85
7824.00,0.85
7822.00,0.85
7820.00,0.85
7818.00,0.85
7816.00,0.85
7814.00,0.85
7812.00,0.85
7810.00,0.85
7808.00,0.86
7806.00,0.86
7804.00,0.86
7802.00,0.86
7800.00,0.85
7798.00,0.85
7796.00,0.86
7794.00,0.86
7792.00,0.86
7790.00,0.86
7788.00,0.86
7786.00,0.86
7784.00,0.86
7782.00,0.86
7780.00,0.86
7778.00,0.86
7776.00,0.86
7774.00,0.85
7772.00,0.85
7770.00,0.85
7768.00,0.85
7766.00,0.85
7764.00,0.85
7762.00,0.85
7760.00,0.85
7758.00,0.86
7756.00,0.86
7754.00,0.86
7752.00,0.86
7750.00,0.86
7748.00,0.86
7746.00,0.86
7744.00,0.86
7742.00,0.86
7740.00,0.86
7738.00,0.86
7736.00,0.86
7734.00,0.86
7732.00,0.86
7730.00,0.86
7728.00,0.86
7726.00,0.86
7724.00,0.86
7722.00,0.86
7720.00,0.86
7718.00,0.86
7716.00,0.86
7714.00,0.86
7712.00,0.86
7710.00,0.86
7708.00,0.86
7706.00,0.86
7704.00,0.86
7702.00,0.86
7700.00,0.86
7698.00,0.86
7696.00,0.86
7694.00,0.86
7692.00,0.86
7690.00,0.86
7688.00,0.86
7686.00,0.86
7684.00,0.86
7682.00,0.86
7680.00,0.86
7678.00,0.85
7676.00,0.85
7674.00,0.85
7672.00,0.85
7670.00,0.85
7668.00,0.85
7666.00,0.85
7664.00,0.85
7662.00,0.85
7660.00,0.86
7658.00,0.86
7656.00,0.86
7654.00,0.86
7652.00,0.86
7650.00,0.86
7648.00,0.86
7646.00,0.87
7644.00,0.87
7642.00,0.87
7640.00,0.87
7638.00,0.87
7636.00,0.87
7634.00,0.87
7632.00,0.87
7630.00,0.87
7628.00,0.86
7626.00,0.86
7624.00,0.86
7622.00,0.86
7620.00,0.86
7618.00,0.86
7616.00,0.86
7614.00,0.86
7612.00,0.86
7610.00,0.86
7608.00,0.86
7606.00,0.86
7604.00,0.86
7602.00,0.86
7600.00,0.86
7598.00,0.86
7596.00,0.86
7594.00,0.86
7592.00,0.86
7590.00,0.86
7588.00,0.86
7586.00,0.86
7584.00,0.86
7582.00,0.86
7580.00,0.86
7578.00,0.86
7576.00,0.86
7574.00,0.85
7572.00,0.85
7570.00,0.85
7568.00,0.85
7566.00,0.85
7564.00,0.85
7562.00,0.85
7560.00,0.85
7558.00,0.85
7556.00,0.86
7554.00,0.86
7552.00,0.86
7550.00,0.86
7548.00,0.86
7546.00,0.86
7544.00,0.86
7542.00,0.86
7540.00,0.86
7538.00,0.86
7536.00,0.86
7534.00,0.86
7532.00,0.86
7530.00,0.86
7528.00,0.86
7526.00,0.86
7524.00,0.86
7522.00,0.86
7520.00,0.86
7518.00,0.86
7516.00,0.86
7514.00,0.86
7512.00,0.87
7510.00,0.87
7508.00,0.87
7506.00,0.87
7504.00,0.87
7502.00,0.87
7500.00,0.87
7498.00,0.86
7496.00,0.86
7494.00,0.86
7492.00,0.86
7490.00,0.86
7488.00,0.85
7486.00,0.85
7484.00,0.85
7482.00,0.85
7480.00,0.85
7478.00,0.85
7476.00,0.85
7474.00,0.85
7472.00,0.85
7470.00,0.85
7468.00,0.85
7466.00,0.85
7464.00,0.85
7462.00,0.85
7460.00,0.85
7458.00,0.85
7456.00,0.85
7454.00,0.85
7452.00,0.85
7450.00,0.86
7448.00,0.86
7446.00,0.86
7444.00,0.86
7442.00,0.86
7440.00,0.86
7438.00,0.86
7436.00,0.86
7434.00,0.86
7432.00,0.86
7430.00,0.86
7428.00,0.85
7426.00,0.85
7424.00,0.85
7422.00,0.85
7420.00,0.85
7418.00,0.85
7416.00,0.85
7414.00,0.85
7412.00,0.85
7410.00,0.85
7408.00,0.85
7406.00,0.85
7404.00,0.85
7402.00,0.85
7400.00,0.85
7398.00,0.85
7396.00,0.85
7394.00,0.85
7392.00,0.85
7390.00,0.85
7388.00,0.84
7386.00,0.84
7384.00,0.84
7382.00,0.84
7380.00,0.84
7378.00,0.84
7376.00,0.84
7374.00,0.84
7372.00,0.84
7370.00,0.84
7368.00,0.84
7366.00,0.84
7364.00,0.84
7362.00,0.84
7360.00,0.84
7358.00,0.84
7356.00,0.84
7354.00,0.84
7352.00,0.84
7350.00,0.84
7348.00,0.84
7346.00,0.84
7344.00,0.84
7342.00,0.84
7340.00,0.84
7338.00,0.84
7336.00,0.84
7334.00,0.84
7332.00,0.84
7330.00,0.85
7328.00,0.85
7326.00,0.84
7324.00,0.84
7322.00,0.84
7320.00,0.84
7318.00,0.84
7316.00,0.84
7314.00,0.84
7312.00,0.84
7310.00,0.84
7308.00,0.84
7306.00,0.85
7304.00,0.85
7302.00,0.85
7300.00,0.85
7298.00,0.85
7296.00,0.85
7294.00,0.85
7292.00,0.85
7290.00,0.84
7288.00,0.84
7286.00,0.84
7284.00,0.84
7282.00,0.84
7280.00,0.84
7278.00,0.84
7276.00,0.84
7274.00,0.84
7272.00,0.84
7270.00,0.84
7268.00,0.84
7266.00,0.84
7264.00,0.84
7262.00,0.84
7260.00,0.84
7258.00,0.84
7256.00,0.84
7254.00,0.84
7252.00,0.84
7250.00,0.84
7248.00,0.84
7246.00,0.84
7244.00,0.84
7242.00,0.84
7240.00,0.84
7238.00,0.83
7236.00,0.83
7234.00,0.83
7232.00,0.83
7230.00,0.83
7228.00,0.83
7226.00,0.83
7224.00,0.83
7222.00,0.83
7220.00,0.83
7218.00,0.83
7216.00,0.83
7214.00,0.83
7212.00,0.83
7210.00,0.83
7208.00,0.82
7206.00,0.82
7204.00,0.82
7202.00,0.82
7200.00,0.82
7198.00,0.82
7196.00,0.81
7194.00,0.81
7192.00,0.81
7190.00,0.81
7188.00,0.81
7186.00,0.81
7184.00,0.81
7182.00,0.81
7180.00,0.81
7178.00,0.81
7176.00,0.81
7174.00,0.81
7172.00,0.81
7170.00,0.81
7168.00,0.81
7166.00,0.81
7164.00,0.81
7162.00,0.81
7160.00,0.81
7158.00,0.81
7156.00,0.81
7154.00,0.81
7152.00,0.81
7150.00,0.81
7148.00,0.81
7146.00,0.81
7144.00,0.80
7142.00,0.80
7140.00,0.80
7138.00,0.80
7136.00,0.80
7134.00,0.80
7132.00,0.80
7130.00,0.79
7128.00,0.79
7126.00,0.79
7124.00,0.79
7122.00,0.79
7120.00,0.79
7118.00,0.79
7116.00,0.79
7114.00,0.79
7112.00,0.79
7110.00,0.79
7108.00,0.79
7106.00,0.79
7104.00,0.79
7102.00,0.79
7100.00,0.79
7098.00,0.79
7096.00,0.79
7094.00,0.79
7092.00,0.79
7090.00,0.79
7088.00,0.79
7086.00,0.79
7084.00,0.79
7082.00,0.79
7080.00,0.79
7078.00,0.79
7076.00,0.79
7074.00,0.79
7072.00,0.79
7070.00,0.79
7068.00,0.78
7066.00,0.78
7064.00,0.78
7062.00,0.78
7060.00,0.78
7058.00,0.78
7056.00,0.78
7054.00,0.78
7052.00,0.78
7050.00,0.78
7048.00,0.78
7046.00,0.78
7044.00,0.78
7042.00,0.78
7040.00,0.78
7038.00,0.78
7036.00,0.78
7034.00,0.78
7032.00,0.78
7030.00,0.78
7028.00,0.78
7026.00,0.78
7024.00,0.78
7022.00,0.78
7020.00,0.78
7018.00,0.78
7016.00,0.78
7014.00,0.78
7012.00,0.78
7010.00,0.78
7008.00,0.78
7006.00,0.78
7004.00,0.78
7002.00,0.78
7000.00,0.77
6998.00,0.77
6996.00,0.77
6994.00,0.77
6992.00,0.77
6990.00,0.77
6988.00,0.77
6986.00,0.77
6984.00,0.77
6982.00,0.77
6980.00,0.77
6978.00,0.77
6976.00,0.77
6974.00,0.77
6972.00,0.77
6970.00,0.77
6968.00,0.77
6966.00,0.77
6964.00,0.77
6962.00,0.77
6960.00,0.77
6958.00,0.77
6956.00,0.77
6954.00,0.77
6952.00,0.76
6950.00,0.76
6948.00,0.76
6946.00,0.77
6944.00,0.77
6942.00,0.77
6940.00,0.77
6938.00,0.77
6936.00,0.76
6934.00,0.76
6932.00,0.76
6930.00,0.76
6928.00,0.76
6926.00,0.76
6924.00,0.76
6922.00,0.76
6920.00,0.76
6918.00,0.76
6916.00,0.76
6914.00,0.76
6912.00,0.76
6910.00,0.76
6908.00,0.76
6906.00,0.76
6904.00,0.76
6902.00,0.76
6900.00,0.76
6898.00,0.76
6896.00,0.76
6894.00,0.76
6892.00,0.76
6890.00,0.76
6888.00,0.76
6886.00,0.76
6884.00,0.76
6882.00,0.76
6880.00,0.76
6878.00,0.76
6876.00,0.76
6874.00,0.76
6872.00,0.76
6870.00,0.76
6868.00,0.76
6866.00,0.76
6864.00,0.76
6862.00,0.76
6860.00,0.76
6858.00,0.76
6856.00,0.76
6854.00,0.76
6852.00,0.76
6850.00,0.76
6848.00,0.76
6846.00,0.76
6844.00,0.76
6842.00,0.76
6840.00,0.76
6838.00,0.76
6836.00,0.76
6834.00,0.76
6832.00,0.76
6830.00,0.76
6828.00,0.76
6826.00,0.76
6824.00,0.75
6822.00,0.75
6820.00,0.75
6818.00,0.75
6816.00,0.75
6814.00,0.75
6812.00,0.76
6810.00,0.76
6808.00,0.76
6806.00,0.76
6804.00,0.76
6802.00,0.76
6800.00,0.76
6798.00,0.77
6796.00,0.77
6794.00,0.77
6792.00,0.77
6790.00,0.77
6788.00,0.77
6786.00,0.77
6784.00,0.77
6782.00,0.77
6780.00,0.77
6778.00,0.77
6776.00,0.77
6774.00,0.77
6772.00,0.77
6770.00,0.77
6768.00,0.77
6766.00,0.77
6764.00,0.77
6762.00,0.77
6760.00,0.77
6758.00,0.77
6756.00,0.77
6754.00,0.77
6752.00,0.77
6750.00,0.77
6748.00,0.77
6746.00,0.77
6744.00,0.77
6742.00,0.77
6740.00,0.77
6738.00,0.77
6736.00,0.77
6734.00,0.77
6732.00,0.77
6730.00,0.77
6728.00,0.77
6726.00,0.77
6724.00,0.77
6722.00,0.77
6720.00,0.77
6718.00,0.77
6716.00,0.77
6714.00,0.77
6712.00,0.77
6710.00,0.77
6708.00,0.77
6706.00,0.77
6704.00,0.77
6702.00,0.77
6700.00,0.77
6698.00,0.77
6696.00,0.77
6694.00,0.77
6692.00,0.77
6690.00,0.77
6688.00,0.78
6686.00,0.78
6684.00,0.78
6682.00,0.78
6680.00,0.78
6678.00,0.78
6676.00,0.78
6674.00,0.78
6672.00,0.78
6670.00,0.78
6668.00,0.78
6666.00,0.78
6664.00,0.78
6662.00,0.78
6660.00,0.78
6658.00,0.78
6656.00,0.78
6654.00,0.78
6652.00,0.78
6650.00,0.79
6648.00,0.79
6646.00,0.79
6644.00,0.79
6642.00,0.79
6640.00,0.79
6638.00,0.79
6636.00,0.79
6634.00,0.79
6632.00,0.79
6630.00,0.79
6628.00,0.79
6626.00,0.79
6624.00,0.79
6622.00,0.79
6620.00,0.79
6618.00,0.79
6616.00,0.79
6614.00,0.79
6612.00,0.79
6610.00,0.79
6608.00,0.79
6606.00,0.79
6604.00,0.79
6602.00,0.79
6600.00,0.79
6598.00,0.79
6596.00,0.79
6594.00,0.79
6592.00,0.79
6590.00,0.79
6588.00,0.79
6586.00,0.79
6584.00,0.79
6582.00,0.79
6580.00,0.79
6578.00,0.79
6576.00,0.79
6574.00,0.79
6572.00,0.79
6570.00,0.79
6568.00,0.79
6566.00,0.79
6564.00,0.79
6562.00,0.80
6560.00,0.80
6558.00,0.80
6556.00,0.80
6554.00,0.80
6552.00,0.80
6550.00,0.80
6548.00,0.80
6546.00,0.80
6544.00,0.80
6542.00,0.80
6540.00,0.80
6538.00,0.80
6536.00,0.80
6534.00,0.80
6532.00,0.80
6530.00,0.80
6528.00,0.80
6526.00,0.80
6524.00,0.80
6522.00,0.81
6520.00,0.81
6518.00,0.81
6516.00,0.81
6514.00,0.81
6512.00,0.81
6510.00,0.81
6508.00,0.81
6506.00,0.81
6504.00,0.81
6502.00,0.81
6500.00,0.81
6498.00,0.81
6496.00,0.81
6494.00,0.81
6492.00,0.80
6490.00,0.80
6488.00,0.80
6486.00,0.80
6484.00,0.80
6482.00,0.80
6480.00,0.80
6478.00,0.80
6476.00,0.80
6474.00,0.80
6472.00,0.80
6470.00,0.80
6468.00,0.81
6466.00,0.81
6464.00,0.80
6462.00,0.80
6460.00,0.80
6458.00,0.80
6456.00,0.80
6454.00,0.80
6452.00,0.81
6450.00,0.81
6448.00,0.81
6446.00,0.81
6444.00,0.81
6442.00,0.81
6440.00,0.81
6438.00,0.81
6436.00,0.81
6434.00,0.81
6432.00,0.81
6430.00,0.81
6428.00,0.81
6426.00,0.81
6424.00,0.81
6422.00,0.81
6420.00,0.81
6418.00,0.81
6416.00,0.81
6414.00,0.81
6412.00,0.81
6410.00,0.81
6408.00,0.81
6406.00,0.81
6404.00,0.82
6402.00,0.82
6400.00,0.82
6398.00,0.82
6396.00,0.82
6394.00,0.82
6392.00,0.82
6390.00,0.82
6388.00,0.82
6386.00,0.82
6384.00,0.81
6382.00,0.81
6380.00,0.81
6378.00,0.81
6376.00,0.81
6374.00,0.81
6372.00,0.81
6370.00,0.81
6368.00,0.81
6366.00,0.81
6364.00,0.81
6362.00,0.81
6360.00,0.81
6358.00,0.81
6356.00,0.81
6354.00,0.81
6352.00,0.81
6350.00,0.81
6348.00,0.81
6346.00,0.81
6344.00,0.81
6342.00,0.81
6340.00,0.82
6338.00,0.82
6336.00,0.82
6334.00,0.82
6332.00,0.82
6330.00,0.82
6328.00,0.82
6326.00,0.82
6324.00,0.82
6322.00,0.82
6320.00,0.82
6318.00,0.82
6316.00,0.82
6314.00,0.82
6312.00,0.82
6310.00,0.82
6308.00,0.82
6306.00,0.82
6304.00,0.82
6302.00,0.82
6300.00,0.82
6298.00,0.82
6296.00,0.82
6294.00,0.82
6292.00,0.82
6290.00,0.82
6288.00,0.82
6286.00,0.82
6284.00,0.82
6282.00,0.82
6280.00,0.82
6278.00,0.82
6276.00,0.82
6274.00,0.82
6272.00,0.82
6270.00,0.82
6268.00,0.82
6266.00,0.83
6264.00,0.83
6262.00,0.83
6260.00,0.83
6258.00,0.83
6256.00,0.83
6254.00,0.83
6252.00,0.83
6250.00,0.83
6248.00,0.83
6246.00,0.83
6244.00,0.83
6242.00,0.83
6240.00,0.83
6238.00,0.83
6236.00,0.83
6234.00,0.83
6232.00,0.83
6230.00,0.83
6228.00,0.83
6226.00,0.83
6224.00,0.83
6222.00,0.83
6220.00,0.83
6218.00,0.83
6216.00,0.83
6214.00,0.83
6212.00,0.83
6210.00,0.83
6208.00,0.83
6206.00,0.83
6204.00,0.83
6202.00,0.83
6200.00,0.84
6198.00,0.84
6196.00,0.84
6194.00,0.84
6192.00,0.84
6190.00,0.84
6188.00,0.84
6186.00,0.84
6184.00,0.84
6182.00,0.84
6180.00,0.83
6178.00,0.83
6176.00,0.83
6174.00,0.83
6172.00,0.83
6170.00,0.83
6168.00,0.83
6166.00,0.84
6164.00,0.84
6162.00,0.84
6160.00,0.84
6158.00,0.83
6156.00,0.83
6154.00,0.83
6152.00,0.83
6150.00,0.83
6148.00,0.83
6146.00,0.84
6144.00,0.84
6142.00,0.84
6140.00,0.84
6138.00,0.84
6136.00,0.84
6134.00,0.84
6132.00,0.84
6130.00,0.84
6128.00,0.84
6126.00,0.84
6124.00,0.84
6122.00,0.84
6120.00,0.84
6118.00,0.84
6116.00,0.84
6114.00,0.84
6112.00,0.84
6110.00,0.84
6108.00,0.84
6106.00,0.84
6104.00,0.84
6102.00,0.85
6100.00,0.85
6098.00,0.85
6096.00,0.85
6094.00,0.85
6092.00,0.85
6090.00,0.85
6088.00,0.85
6086.00,0.85
6084.00,0.85
6082.00,0.85
6080.00,0.85
6078.00,0.85
6076.00,0.85
6074.00,0.85
6072.00,0.85
6070.00,0.85
6068.00,0.85
6066.00,0.85
6064.00,0.85
6062.00,0.85
6060.00,0.85
6058.00,0.85
6056.00,0.85
6054.00,0.85
6052.00,0.85
6050.00,0.85
6048.00,0.85
6046.00,0.85
6044.00,0.85
6042.00,0.85
6040.00,0.85
6038.00,0.85
6036.00,0.85
6034.00,0.85
6032.00,0.85
6030.00,0.85
6028.00,0.85
6026.00,0.85
6024.00,0.85
6022.00,0.85
6020.00,0.85
6018.00,0.85
6016.00,0.85
6014.00,0.85
6012.00,0.85
6010.00,0.85
6008.00,0.85
6006.00,0.85
6004.00,0.85
6002.00,0.85
6000.00,0.85
5998.00,0.85
5996.00,0.85
5994.00,0.85
5992.00,0.85
5990.00,0.85
5988.00,0.85
5986.00,0.85
5984.00,0.85
5982.00,0.85
5980.00,0.85
5978.00,0.85
5976.00,0.85
5974.00,0.85
5972.00,0.85
5970.00,0.85
5968.00,0.85
5966.00,0.84
5964.00,0.84
5962.00,0.84
5960.00,0.84
5958.00,0.84
5956.00,0.83
5954.00,0.83
5952.00,0.83
5950.00,0.83
5948.00,0.83
5946.00,0.83
5944.00,0.83
5942.00,0.83
5940.00,0.82
5938.00,0.82
5936.00,0.82
5934.00,0.82
5932.00,0.82
5930.00,0.83
5928.00,0.83
5926.00,0.83
5924.00,0.83
5922.00,0.83
5920.00,0.83
5918.00,0.83
5916.00,0.82
5914.00,0.82
5912.00,0.82
5910.00,0.82
5908.00,0.82
5906.00,0.82
5904.00,0.82
5902.00,0.82
5900.00,0.82
5898.00,0.82
5896.00,0.82
5894.00,0.82
5892.00,0.82
5890.00,0.82
5888.00,0.82
5886.00,0.82
5884.00,0.82
5882.00,0.82
5880.00,0.82
5878.00,0.83
5876.00,0.83
5874.00,0.83
5872.00,0.83
5870.00,0.83
5868.00,0.83
5866.00,0.83
5864.00,0.83
5862.00,0.83
5860.00,0.83
5858.00,0.83
5856.00,0.83
5854.00,0.83
5852.00,0.83
5850.00,0.83
5848.00,0.83
5846.00,0.83
5844.00,0.83
5842.00,0.83
5840.00,0.83
5838.00,0.83
5836.00,0.83
5834.00,0.83
5832.00,0.83
5830.00,0.83
5828.00,0.83
5826.00,0.83
5824.00,0.83
5822.00,0.83
5820.00,0.84
5818.00,0.84
5816.00,0.83
5814.00,0.83
5812.00,0.83
5810.00,0.83
5808.00,0.83
5806.00,0.83
5804.00,0.83
5802.00,0.83
5800.00,0.83
5798.00,0.83
5796.00,0.83
5794.00,0.83
5792.00,0.83
5790.00,0.83
5788.00,0.83
5786.00,0.83
5784.00,0.83
5782.00,0.83
5780.00,0.83
5778.00,0.83
5776.00,0.83
5774.00,0.83
5772.00,0.83
5770.00,0.83
5768.00,0.83
5766.00,0.83
5764.00,0.83
5762.00,0.83
5760.00,0.83
5758.00,0.83
5756.00,0.83
5754.00,0.83
5752.00,0.83
5750.00,0.83
5748.00,0.83
5746.00,0.83
5744.00,0.84
5742.00,0.84
5740.00,0.84
5738.00,0.84
5736.00,0.84
5734.00,0.84
5732.00,0.84
5730.00,0.84
5728.00,0.84
5726.00,0.84
5724.00,0.84
5722.00,0.84
5720.00,0.84
5718.00,0.84
5716.00,0.84
5714.00,0.84
5712.00,0.84
5710.00,0.84
5708.00,0.84
5706.00,0.84
5704.00,0.84
5702.00,0.84
5700.00,0.84
5698.00,0.84
5696.00,0.84
5694.00,0.84
5692.00,0.84
5690.00,0.84
5688.00,0.84
5686.00,0.84
5684.00,0.84
5682.00,0.84
5680.00,0.84
5678.00,0.84
5676.00,0.84
5674.00,0.84
5672.00,0.84
5670.00,0.84
5668.00,0.84
5666.00,0.84
5664.00,0.84
5662.00,0.84
5660.00,0.84
5658.00,0.84
5656.00,0.84
5654.00,0.84
5652.00,0.84
5650.00,0.84
5648.00,0.84
5646.00,0.84
5644.00,0.84
5642.00,0.84
5640.00,0.84
5638.00,0.84
5636.00,0.84
5634.00,0.84
5632.00,0.84
5630.00,0.84
5628.00,0.84
5626.00,0.84
5624.00,0.84
5622.00,0.85
5620.00,0.85
5618.00,0.85
5616.00,0.85
5614.00,0.85
5612.00,0.85
5610.00,0.85
5608.00,0.85
5606.00,0.85
5604.00,0.85
5602.00,0.85
5600.00,0.85
5598.00,0.85
5596.00,0.85
5594.00,0.85
5592.00,0.85
5590.00,0.85
5588.00,0.86
5586.00,0.86
5584.00,0.86
5582.00,0.86
5580.00,0.86
5578.00,0.86
5576.00,0.86
5574.00,0.86
5572.00,0.86
5570.00,0.86
5568.00,0.86
5566.00,0.86
5564.00,0.86
5562.00,0.86
5560.00,0.85
5558.00,0.85
5556.00,0.85
5554.00,0.85
5552.00,0.85
5550.00,0.86
5548.00,0.86
5546.00,0.86
5544.00,0.86
5542.00,0.86
5540.00,0.86
5538.00,0.86
5536.00,0.86
5534.00,0.86
5532.00,0.86
5530.00,0.86
5528.00,0.86
5526.00,0.86
5524.00,0.86
5522.00,0.86
5520.00,0.86
5518.00,0.86
5516.00,0.86
5514.00,0.86
5512.00,0.86
5510.00,0.86
5508.00,0.86
5506.00,0.86
5504.00,0.86
5502.00,0.86
5500.00,0.86
5498.00,0.86
5496.00,0.86
5494.00,0.86
5492.00,0.86
5490.00,0.86
5488.00,0.86
5486.00,0.86
5484.00,0.86
5482.00,0.86
5480.00,0.86
5478.00,0.86
5476.00,0.86
5474.00,0.86
5472.00,0.86
5470.00,0.86
5468.00,0.86
5466.00,0.86
5464.00,0.87
5462.00,0.87
5460.00,0.87
5458.00,0.87
5456.00,0.87
5454.00,0.86
5452.00,0.86
5450.00,0.86
5448.00,0.86
5446.00,0.86
5444.00,0.86
5442.00,0.86
5440.00,0.86
5438.00,0.86
5436.00,0.86
5434.00,0.86
5432.00,0.86
5430.00,0.87
5428.00,0.87
5426.00,0.87
5424.00,0.87
5422.00,0.87
5420.00,0.87
5418.00,0.87
5416.00,0.87
5414.00,0.87
5412.00,0.87
5410.00,0.87
5408.00,0.87
5406.00,0.87
5404.00,0.87
5402.00,0.87
5400.00,0.87
5398.00,0.87
5396.00,0.87
5394.00,0.87
5392.00,0.87
5390.00,0.87
5388.00,0.87
5386.00,0.87
5384.00,0.87
5382.00,0.86
5380.00,0.86
5378.00,0.86
5376.00,0.86
5374.00,0.86
5372.00,0.86
5370.00,0.86
5368.00,0.86
5366.00,0.86
5364.00,0.86
5362.00,0.86
5360.00,0.86
5358.00,0.86
5356.00,0.86
5354.00,0.86
5352.00,0.85
5350.00,0.85
5348.00,0.85
5346.00,0.85
5344.00,0.85
5342.00,0.85
5340.00,0.84
5338.00,0.84
5336.00,0.84
5334.00,0.84
5332.00,0.84
5330.00,0.83
5328.00,0.83
5326.00,0.83
5324.00,0.83
5322.00,0.82
5320.00,0.82
5318.00,0.82
5316.00,0.81
5314.00,0.81
5312.00,0.81
5310.00,0.80
5308.00,0.80
5306.00,0.79
5304.00,0.79
5302.00,0.78
5300.00,0.78
5298.00,0.78
5296.00,0.78
5294.00,0.77
5292.00,0.77
5290.00,0.77
5288.00,0.76
5286.00,0.76
5284.00,0.76
5282.00,0.75
5280.00,0.75
5278.00,0.75
5276.00,0.74
5274.00,0.74
5272.00,0.74
5270.00,0.74
5268.00,0.73
5266.00,0.73
5264.00,0.73
5262.00,0.72
5260.00,0.72
5258.00,0.72
5256.00,0.72
5254.00,0.72
5252.00,0.71
5250.00,0.71
5248.00,0.71
5246.00,0.71
5244.00,0.71
5242.00,0.71
5240.00,0.70
5238.00,0.70
5236.00,0.70
5234.00,0.70
5232.00,0.70
5230.00,0.70
5228.00,0.69
5226.00,0.69
5224.00,0.69
5222.00,0.69
5220.00,0.69
5218.00,0.69
5216.00,0.68
5214.00,0.68
5212.00,0.68
5210.00,0.68
5208.00,0.67
5206.00,0.67
5204.00,0.67
5202.00,0.67
5200.00,0.67
5198.00,0.67
5196.00,0.67
5194.00,0.67
5192.00,0.67
5190.00,0.66
5188.00,0.66
5186.00,0.66
5184.00,0.66
5182.00,0.66
5180.00,0.66
5178.00,0.66
5176.00,0.66
5174.00,0.66
5172.00,0.66
5170.00,0.66
5168.00,0.66
5166.00,0.66
5164.00,0.66
5162.00,0.66
5160.00,0.66
5158.00,0.66
5156.00,0.67
5154.00,0.67
5152.00,0.67
5150.00,0.67
5148.00,0.67
5146.00,0.67
5144.00,0.67
5142.00,0.67
5140.00,0.67
5138.00,0.67
5136.00,0.67
5134.00,0.67
5132.00,0.68
5130.00,0.68
5128.00,0.68
5126.00,0.68
5124.00,0.68
5122.00,0.68
5120.00,0.68
5118.00,0.68
5116.00,0.69
5114.00,0.69
5112.00,0.69
5110.00,0.69
5108.00,0.69
5106.00,0.69
5104.00,0.70
5102.00,0.70
5100.00,0.70
5098.00,0.70
5096.00,0.70
5094.00,0.70
5092.00,0.70
5090.00,0.70
5088.00,0.71
5086.00,0.71
5084.00,0.71
5082.00,0.71
5080.00,0.71
5078.00,0.71
5076.00,0.71
5074.00,0.72
5072.00,0.72
5070.00,0.72
5068.00,0.72
5066.00,0.72
5064.00,0.72
5062.00,0.72
5060.00,0.73
5058.00,0.73
5056.00,0.73
5054.00,0.73
5052.00,0.73
5050.00,0.73
5048.00,0.73
5046.00,0.73
5044.00,0.74
5042.00,0.74
5040.00,0.74
5038.00,0.74
5036.00,0.74
5034.00,0.74
5032.00,0.75
5030.00,0.75
5028.00,0.75
5026.00,0.75
5024.00,0.75
5022.00,0.75
5020.00,0.75
5018.00,0.75
5016.00,0.75
5014.00,0.76
5012.00,0.76
5010.00,0.76
5008.00,0.76
5006.00,0.76
5004.00,0.76
5002.00,0.76
5000.00,0.76
4998.00,0.77
4996.00,0.77
4994.00,0.77
4992.00,0.77
4990.00,0.77
4988.00,0.77
4986.00,0.77
4984.00,0.77
4982.00,0.77
4980.00,0.78
4978.00,0.78
4976.00,0.78
4974.00,0.78
4972.00,0.78
4970.00,0.78
4968.00,0.78
4966.00,0.78
4964.00,0.78
4962.00,0.78
4960.00,0.78
4958.00,0.78
4956.00,0.78
4954.00,0.79
4952.00,0.79
4950.00,0.79
4948.00,0.79
4946.00,0.79
4944.00,0.79
4942.00,0.79
4940.00,0.79
4938.00,0.79
4936.00,0.79
4934.00,0.79
4932.00,0.79
4930.00,0.79
4928.00,0.79
4926.00,0.79
4924.00,0.79
4922.00,0.80
4920.00,0.80
4918.00,0.80
4916.00,0.80
4914.00,0.80
4912.00,0.80
4910.00,0.80
4908.00,0.80
4906.00,0.80
4904.00,0.80
4902.00,0.80
4900.00,0.80
4898.00,0.80
4896.00,0.80
4894.00,0.80
4892.00,0.80
4890.00,0.80
4888.00,0.80
4886.00,0.80
4884.00,0.80
4882.00,0.80
4880.00,0.80
4878.00,0.80
4876.00,0.80
4874.00,0.80
4872.00,0.80
4870.00,0.80
4868.00,0.80
4866.00,0.80
4864.00,0.80
4862.00,0.80
4860.00,0.80
4858.00,0.80
4856.00,0.80
4854.00,0.80
4852.00,0.80
4850.00,0.80
4848.00,0.80
4846.00,0.80
4844.00,0.80
4842.00,0.80
4840.00,0.80
4838.00,0.80
4836.00,0.80
4834.00,0.80
4832.00,0.80
4830.00,0.80
4828.00,0.80
4826.00,0.80
4824.00,0.80
4822.00,0.81
4820.00,0.81
4818.00,0.81
4816.00,0.81
4814.00,0.81
4812.00,0.81
4810.00,0.81
4808.00,0.81
4806.00,0.81
4804.00,0.81
4802.00,0.81
4800.00,0.81
4798.00,0.81
4796.00,0.81
4794.00,0.81
4792.00,0.81
4790.00,0.81
4788.00,0.82
4786.00,0.82
4784.00,0.82
4782.00,0.82
4780.00,0.82
4778.00,0.82
4776.00,0.82
4774.00,0.82
4772.00,0.82
4770.00,0.82
4768.00,0.83
4766.00,0.83
4764.00,0.83
4762.00,0.83
4760.00,0.83
4758.00,0.83
4756.00,0.83
4754.00,0.83
4752.00,0.83
4750.00,0.83
4748.00,0.83
4746.00,0.83
4744.00,0.83
4742.00,0.83
4740.00,0.83
4738.00,0.83
4736.00,0.83
4734.00,0.84
4732.00,0.84
4730.00,0.84
4728.00,0.84
4726.00,0.84
4724.00,0.84
4722.00,0.84
4720.00,0.84
4718.00,0.84
4716.00,0.84
4714.00,0.84
4712.00,0.84
4710.00,0.84
4708.00,0.84
4706.00,0.84
4704.00,0.84
4702.00,0.84
4700.00,0.84
4698.00,0.84
4696.00,0.85
4694.00,0.85
4692.00,0.85
4690.00,0.85
4688.00,0.85
4686.00,0.85
4684.00,0.85
4682.00,0.85
4680.00,0.85
4678.00,0.85
4676.00,0.85
4674.00,0.85
4672.00,0.85
4670.00,0.85
4668.00,0.85
4666.00,0.85
4664.00,0.85
4662.00,0.86
4660.00,0.86
4658.00,0.85
4656.00,0.85
4654.00,0.85
4652.00,0.85
4650.00,0.85
4648.00,0.85
4646.00,0.85
4644.00,0.85
4642.00,0.85
4640.00,0.85
4638.00,0.86
4636.00,0.86
4634.00,0.86
4632.00,0.86
4630.00,0.86
4628.00,0.86
4626.00,0.86
4624.00,0.86
4622.00,0.86
4620.00,0.86
4618.00,0.86
4616.00,0.86
4614.00,0.86
4612.00,0.86
4610.00,0.86
4608.00,0.86
4606.00,0.86
4604.00,0.86
4602.00,0.86
4600.00,0.86
4598.00,0.86
4596.00,0.86
4594.00,0.86
4592.00,0.86
4590.00,0.86
4588.00,0.86
4586.00,0.86
4584.00,0.86
4582.00,0.86
4580.00,0.86
4578.00,0.86
4576.00,0.86
4574.00,0.86
4572.00,0.86
4570.00,0.86
4568.00,0.86
4566.00,0.86
4564.00,0.86
4562.00,0.86
4560.00,0.86
4558.00,0.86
4556.00,0.86
4554.00,0.86
4552.00,0.86
4550.00,0.86
4548.00,0.86
4546.00,0.86
4544.00,0.86
4542.00,0.86
4540.00,0.86
4538.00,0.86
4536.00,0.86
4534.00,0.86
4532.00,0.86
4530.00,0.86
4528.00,0.86
4526.00,0.86
4524.00,0.86
4522.00,0.87
4520.00,0.87
4518.00,0.87
4516.00,0.87
4514.00,0.87
4512.00,0.87
4510.00,0.87
4508.00,0.87
4506.00,0.87
4504.00,0.87
4502.00,0.87
4500.00,0.87
4498.00,0.87
4496.00,0.87
4494.00,0.87
4492.00,0.87
4490.00,0.87
4488.00,0.87
4486.00,0.87
4484.00,0.87
4482.00,0.87
4480.00,0.87
4478.00,0.87
4476.00,0.87
4474.00,0.87
4472.00,0.87
4470.00,0.87
4468.00,0.87
4466.00,0.87
4464.00,0.86
4462.00,0.86
4460.00,0.86
4458.00,0.86
4456.00,0.86
4454.00,0.86
4452.00,0.85
4450.00,0.85
4448.00,0.85
4446.00,0.85
4444.00,0.84
4442.00,0.84
4440.00,0.83
4438.00,0.83
4436.00,0.82
4434.00,0.82
4432.00,0.81
4430.00,0.80
4428.00,0.80
4426.00,0.79
4424.00,0.79
4422.00,0.79
4420.00,0.78
4418.00,0.78
4416.00,0.78
4414.00,0.77
4412.00,0.77
4410.00,0.77
4408.00,0.77
4406.00,0.77
4404.00,0.77
4402.00,0.77
4400.00,0.77
4398.00,0.78
4396.00,0.78
4394.00,0.78
4392.00,0.78
4390.00,0.79
4388.00,0.79
4386.00,0.79
4384.00,0.80
4382.00,0.80
4380.00,0.80
4378.00,0.81
4376.00,0.81
4374.00,0.81
4372.00,0.81
4370.00,0.81
4368.00,0.81
4366.00,0.81
4364.00,0.81
4362.00,0.81
4360.00,0.80
4358.00,0.80
4356.00,0.80
4354.00,0.79
4352.00,0.79
4350.00,0.79
4348.00,0.78
4346.00,0.78
4344.00,0.78
4342.00,0.78
4340.00,0.78
4338.00,0.78
4336.00,0.78
4334.00,0.78
4332.00,0.78
4330.00,0.78
4328.00,0.79
4326.00,0.79
4324.00,0.79
4322.00,0.80
4320.00,0.80
4318.00,0.81
4316.00,0.81
4314.00,0.82
4312.00,0.82
4310.00,0.83
4308.00,0.83
4306.00,0.83
4304.00,0.84
4302.00,0.84
4300.00,0.84
4298.00,0.85
4296.00,0.85
4294.00,0.85
4292.00,0.85
4290.00,0.86
4288.00,0.86
4286.00,0.86
4284.00,0.86
4282.00,0.86
4280.00,0.86
4278.00,0.86
4276.00,0.86
4274.00,0.85
4272.00,0.85
4270.00,0.85
4268.00,0.84
4266.00,0.84
4264.00,0.84
4262.00,0.84
4260.00,0.83
4258.00,0.83
4256.00,0.83
4254.00,0.83
4252.00,0.83
4250.00,0.83
4248.00,0.84
4246.00,0.84
4244.00,0.84
4242.00,0.84
4240.00,0.84
4238.00,0.84
4236.00,0.85
4234.00,0.85
4232.00,0.85
4230.00,0.86
4228.00,0.86
4226.00,0.86
4224.00,0.86
4222.00,0.86
4220.00,0.86
4218.00,0.86
4216.00,0.86
4214.00,0.86
4212.00,0.86
4210.00,0.86
4208.00,0.86
4206.00,0.86
4204.00,0.86
4202.00,0.87
4200.00,0.87
4198.00,0.87
4196.00,0.87
4194.00,0.87
4192.00,0.87
4190.00,0.87
4188.00,0.87
4186.00,0.87
4184.00,0.87
4182.00,0.86
4180.00,0.86
4178.00,0.86
4176.00,0.86
4174.00,0.86
4172.00,0.86
4170.00,0.86
4168.00,0.86
4166.00,0.86
4164.00,0.86
4162.00,0.86
4160.00,0.86
4158.00,0.86
4156.00,0.86
4154.00,0.86
4152.00,0.86
4150.00,0.86
4148.00,0.86
4146.00,0.86
4144.00,0.86
4142.00,0.86
4140.00,0.87
4138.00,0.87
4136.00,0.87
4134.00,0.87
4132.00,0.87
4130.00,0.87
4128.00,0.87
4126.00,0.87
4124.00,0.87
4122.00,0.87
4120.00,0.87
4118.00,0.87
4116.00,0.87
4114.00,0.87
4112.00,0.87
4110.00,0.87
4108.00,0.87
4106.00,0.87
4104.00,0.87
4102.00,0.87
4100.00,0.86
4098.00,0.86
4096.00,0.86
4094.00,0.86
4092.00,0.86
4090.00,0.86
4088.00,0.86
4086.00,0.85
4084.00,0.85
4082.00,0.85
4080.00,0.85
4078.00,0.85
4076.00,0.84
4074.00,0.84
4072.00,0.84
4070.00,0.84
4068.00,0.84
4066.00,0.83
4064.00,0.83
4062.00,0.83
4060.00,0.83
4058.00,0.83
4056.00,0.83
4054.00,0.84
4052.00,0.84
4050.00,0.84
4048.00,0.84
4046.00,0.85
4044.00,0.85
4042.00,0.85
4040.00,0.85
4038.00,0.85
4036.00,0.85
4034.00,0.85
4032.00,0.85
4030.00,0.85
4028.00,0.85
4026.00,0.85
4024.00,0.85
4022.00,0.85
4020.00,0.85
4018.00,0.85
4016.00,0.85
4014.00,0.85
4012.00,0.85
4010.00,0.86
4008.00,0.86
4006.00,0.86
4004.00,0.86
4002.00,0.87
4000.00,0.87
