创建为新数据集,样品 1328 用户 Administrator 日期 星期六, 八月 17 2019
cm-1,%T
10000.00,0.91
9998.00,0.91
9996.00,0.91
9994.00,0.91
9992.00,0.91
9990.00,0.91
9988.00,0.91
9986.00,0.91
9984.00,0.91
9982.00,0.91
9980.00,0.91
9978.00,0.91
9976.00,0.91
9974.00,0.91
9972.00,0.90
9970.00,0.90
9968.00,0.90
9966.00,0.90
9964.00,0.90
9962.00,0.90
9960.00,0.90
9958.00,0.90
9956.00,0.90
9954.00,0.90
9952.00,0.90
9950.00,0.90
9948.00,0.90
9946.00,0.90
9944.00,0.90
9942.00,0.90
9940.00,0.90
9938.00,0.90
9936.00,0.90
9934.00,0.90
9932.00,0.90
9930.00,0.90
9928.00,0.90
9926.00,0.90
9924.00,0.90
9922.00,0.90
9920.00,0.90
9918.00,0.90
9916.00,0.90
9914.00,0.90
9912.00,0.90
9910.00,0.89
9908.00,0.89
9906.00,0.89
9904.00,0.89
9902.00,0.89
9900.00,0.89
9898.00,0.89
9896.00,0.88
9894.00,0.88
9892.00,0.88
9890.00,0.88
9888.00,0.88
9886.00,0.88
9884.00,0.88
9882.00,0.88
9880.00,0.88
9878.00,0.88
9876.00,0.88
9874.00,0.89
9872.00,0.89
9870.00,0.89
9868.00,0.89
9866.00,0.89
9864.00,0.89
9862.00,0.89
9860.00,0.89
9858.00,0.89
9856.00,0.89
9854.00,0.89
9852.00,0.89
9850.00,0.89
9848.00,0.89
9846.00,0.89
9844.00,0.89
9842.00,0.89
9840.00,0.89
9838.00,0.89
9836.00,0.89
9834.00,0.89
9832.00,0.89
9830.00,0.89
9828.00,0.89
9826.00,0.89
9824.00,0.89
9822.00,0.89
9820.00,0.89
9818.00,0.90
9816.00,0.90
9814.00,0.90
9812.00,0.90
9810.00,0.90
9808.00,0.90
9806.00,0.90
9804.00,0.90
9802.00,0.90
9800.00,0.90
9798.00,0.90
9796.00,0.90
9794.00,0.90
9792.00,0.90
9790.00,0.90
9788.00,0.90
9786.00,0.90
9784.00,0.90
9782.00,0.90
9780.00,0.90
9778.00,0.90
9776.00,0.90
9774.00,0.90
9772.00,0.90
9770.00,0.90
9768.00,0.90
9766.00,0.90
9764.00,0.90
9762.00,0.90
9760.00,0.90
9758.00,0.89
9756.00,0.89
9754.00,0.89
9752.00,0.89
9750.00,0.89
9748.00,0.89
9746.00,0.89
9744.00,0.89
9742.00,0.89
9740.00,0.89
9738.00,0.89
9736.00,0.88
9734.00,0.88
9732.00,0.88
9730.00,0.88
9728.00,0.88
9726.00,0.88
9724.00,0.88
9722.00,0.88
9720.00,0.88
9718.00,0.88
9716.00,0.89
9714.00,0.89
9712.00,0.89
9710.00,0.89
9708.00,0.89
9706.00,0.89
9704.00,0.89
9702.00,0.89
9700.00,0.89
9698.00,0.89
9696.00,0.89
9694.00,0.89
9692.00,0.89
9690.00,0.89
9688.00,0.89
9686.00,0.89
9684.00,0.89
9682.00,0.89
9680.00,0.89
9678.00,0.89
9676.00,0.89
9674.00,0.89
9672.00,0.89
9670.00,0.89
9668.00,0.89
9666.00,0.89
9664.00,0.89
9662.00,0.89
9660.00,0.89
9658.00,0.89
9656.00,0.89
9654.00,0.89
9652.00,0.89
9650.00,0.89
9648.00,0.88
9646.00,0.88
9644.00,0.88
9642.00,0.88
9640.00,0.88
9638.00,0.88
9636.00,0.88
9634.00,0.88
9632.00,0.88
9630.00,0.88
9628.00,0.88
9626.00,0.88
9624.00,0.89
9622.00,0.89
9620.00,0.89
9618.00,0.89
9616.00,0.89
9614.00,0.89
9612.00,0.89
9610.00,0.89
9608.00,0.90
9606.00,0.90
9604.00,0.90
9602.00,0.90
9600.00,0.90
9598.00,0.90
9596.00,0.90
9594.00,0.90
9592.00,0.90
9590.00,0.90
9588.00,0.90
9586.00,0.90
9584.00,0.90
9582.00,0.90
9580.00,0.90
9578.00,0.90
9576.00,0.90
9574.00,0.90
9572.00,0.89
9570.00,0.89
9568.00,0.89
9566.00,0.89
9564.00,0.89
9562.00,0.89
9560.00,0.89
9558.00,0.89
9556.00,0.89
9554.00,0.89
9552.00,0.89
9550.00,0.89
9548.00,0.89
9546.00,0.89
9544.00,0.89
9542.00,0.89
9540.00,0.89
9538.00,0.89
9536.00,0.89
9534.00,0.89
9532.00,0.89
9530.00,0.89
9528.00,0.89
9526.00,0.89
9524.00,0.89
9522.00,0.89
9520.00,0.89
9518.00,0.89
9516.00,0.89
9514.00,0.89
9512.00,0.89
9510.00,0.89
9508.00,0.89
9506.00,0.89
9504.00,0.89
9502.00,0.89
9500.00,0.89
9498.00,0.89
9496.00,0.89
9494.00,0.89
9492.00,0.89
9490.00,0.89
9488.00,0.89
9486.00,0.89
9484.00,0.89
9482.00,0.89
9480.00,0.89
9478.00,0.89
9476.00,0.89
9474.00,0.89
9472.00,0.89
9470.00,0.89
9468.00,0.89
9466.00,0.89
9464.00,0.89
9462.00,0.89
9460.00,0.89
9458.00,0.89
9456.00,0.89
9454.00,0.89
9452.00,0.89
9450.00,0.89
9448.00,0.89
9446.00,0.89
9444.00,0.89
9442.00,0.89
9440.00,0.89
9438.00,0.89
9436.00,0.89
9434.00,0.89
9432.00,0.89
9430.00,0.89
9428.00,0.89
9426.00,0.89
9424.00,0.89
9422.00,0.89
9420.00,0.89
9418.00,0.89
9416.00,0.89
9414.00,0.89
9412.00,0.89
9410.00,0.89
9408.00,0.89
9406.00,0.89
9404.00,0.89
9402.00,0.89
9400.00,0.89
9398.00,0.89
9396.00,0.89
9394.00,0.89
9392.00,0.89
9390.00,0.89
9388.00,0.89
9386.00,0.89
9384.00,0.89
9382.00,0.89
9380.00,0.89
9378.00,0.89
9376.00,0.89
9374.00,0.89
9372.00,0.88
9370.00,0.88
9368.00,0.88
9366.00,0.88
9364.00,0.88
9362.00,0.88
9360.00,0.88
9358.00,0.88
9356.00,0.88
9354.00,0.88
9352.00,0.88
9350.00,0.88
9348.00,0.88
9346.00,0.88
9344.00,0.88
9342.00,0.88
9340.00,0.88
9338.00,0.88
9336.00,0.88
9334.00,0.88
9332.00,0.88
9330.00,0.88
9328.00,0.88
9326.00,0.88
9324.00,0.88
9322.00,0.88
9320.00,0.88
9318.00,0.88
9316.00,0.88
9314.00,0.88
9312.00,0.88
9310.00,0.88
9308.00,0.88
9306.00,0.88
9304.00,0.87
9302.00,0.87
9300.00,0.87
9298.00,0.87
9296.00,0.87
9294.00,0.87
9292.00,0.88
9290.00,0.88
9288.00,0.88
9286.00,0.88
9284.00,0.88
9282.00,0.88
9280.00,0.88
9278.00,0.89
9276.00,0.89
9274.00,0.89
9272.00,0.89
9270.00,0.89
9268.00,0.89
9266.00,0.89
9264.00,0.89
9262.00,0.89
9260.00,0.89
9258.00,0.89
9256.00,0.89
9254.00,0.89
9252.00,0.89
9250.00,0.89
9248.00,0.89
9246.00,0.89
9244.00,0.89
9242.00,0.89
9240.00,0.89
9238.00,0.89
9236.00,0.89
9234.00,0.88
9232.00,0.88
9230.00,0.88
9228.00,0.88
9226.00,0.88
9224.00,0.88
9222.00,0.88
9220.00,0.88
9218.00,0.88
9216.00,0.88
9214.00,0.88
9212.00,0.88
9210.00,0.88
9208.00,0.87
9206.00,0.87
9204.00,0.87
9202.00,0.87
9200.00,0.87
9198.00,0.88
9196.00,0.88
9194.00,0.88
9192.00,0.88
9190.00,0.88
9188.00,0.88
9186.00,0.88
9184.00,0.88
9182.00,0.88
9180.00,0.88
9178.00,0.88
9176.00,0.88
9174.00,0.88
9172.00,0.88
9170.00,0.88
9168.00,0.88
9166.00,0.88
9164.00,0.88
9162.00,0.88
9160.00,0.88
9158.00,0.88
9156.00,0.88
9154.00,0.88
9152.00,0.88
9150.00,0.89
9148.00,0.89
9146.00,0.89
9144.00,0.89
9142.00,0.89
9140.00,0.89
9138.00,0.89
9136.00,0.89
9134.00,0.89
9132.00,0.89
9130.00,0.89
9128.00,0.89
9126.00,0.89
9124.00,0.89
9122.00,0.89
9120.00,0.89
9118.00,0.89
9116.00,0.89
9114.00,0.89
9112.00,0.88
9110.00,0.88
9108.00,0.88
9106.00,0.88
9104.00,0.88
9102.00,0.88
9100.00,0.88
9098.00,0.88
9096.00,0.88
9094.00,0.88
9092.00,0.88
9090.00,0.88
9088.00,0.88
9086.00,0.88
9084.00,0.88
9082.00,0.88
9080.00,0.88
9078.00,0.88
9076.00,0.88
9074.00,0.89
9072.00,0.89
9070.00,0.89
9068.00,0.89
9066.00,0.89
9064.00,0.89
9062.00,0.89
9060.00,0.90
9058.00,0.90
9056.00,0.90
9054.00,0.90
9052.00,0.90
9050.00,0.90
9048.00,0.90
9046.00,0.90
9044.00,0.90
9042.00,0.90
9040.00,0.90
9038.00,0.90
9036.00,0.90
9034.00,0.90
9032.00,0.90
9030.00,0.90
9028.00,0.90
9026.00,0.90
9024.00,0.90
9022.00,0.90
9020.00,0.90
9018.00,0.90
9016.00,0.90
9014.00,0.90
9012.00,0.90
9010.00,0.90
9008.00,0.90
9006.00,0.90
9004.00,0.90
9002.00,0.90
9000.00,0.90
8998.00,0.90
8996.00,0.90
8994.00,0.90
8992.00,0.90
8990.00,0.90
8988.00,0.90
8986.00,0.90
8984.00,0.90
8982.00,0.90
8980.00,0.90
8978.00,0.90
8976.00,0.90
8974.00,0.90
8972.00,0.90
8970.00,0.90
8968.00,0.90
8966.00,0.90
8964.00,0.90
8962.00,0.90
8960.00,0.90
8958.00,0.90
8956.00,0.90
8954.00,0.89
8952.00,0.89
8950.00,0.89
8948.00,0.89
8946.00,0.89
8944.00,0.89
8942.00,0.89
8940.00,0.89
8938.00,0.89
8936.00,0.89
8934.00,0.89
8932.00,0.89
8930.00,0.89
8928.00,0.89
8926.00,0.89
8924.00,0.89
8922.00,0.89
8920.00,0.89
8918.00,0.89
8916.00,0.89
8914.00,0.89
8912.00,0.89
8910.00,0.89
8908.00,0.89
8906.00,0.89
8904.00,0.89
8902.00,0.89
8900.00,0.89
8898.00,0.89
8896.00,0.89
8894.00,0.89
8892.00,0.89
8890.00,0.89
8888.00,0.89
8886.00,0.89
8884.00,0.89
8882.00,0.89
8880.00,0.89
8878.00,0.89
8876.00,0.89
8874.00,0.89
8872.00,0.89
8870.00,0.89
8868.00,0.89
8866.00,0.89
8864.00,0.89
8862.00,0.89
8860.00,0.89
8858.00,0.89
8856.00,0.89
8854.00,0.89
8852.00,0.89
8850.00,0.89
8848.00,0.89
8846.00,0.89
8844.00,0.89
8842.00,0.89
8840.00,0.89
8838.00,0.89
8836.00,0.89
8834.00,0.89
8832.00,0.89
8830.00,0.89
8828.00,0.89
8826.00,0.89
8824.00,0.89
8822.00,0.89
8820.00,0.89
8818.00,0.88
8816.00,0.88
8814.00,0.88
8812.00,0.88
8810.00,0.88
8808.00,0.88
8806.00,0.88
8804.00,0.88
8802.00,0.88
8800.00,0.88
8798.00,0.88
8796.00,0.88
8794.00,0.88
8792.00,0.88
8790.00,0.88
8788.00,0.88
8786.00,0.88
8784.00,0.88
8782.00,0.88
8780.00,0.88
8778.00,0.88
8776.00,0.88
8774.00,0.88
8772.00,0.88
8770.00,0.88
8768.00,0.88
8766.00,0.88
8764.00,0.88
8762.00,0.88
8760.00,0.88
8758.00,0.88
8756.00,0.88
8754.00,0.88
8752.00,0.88
8750.00,0.88
8748.00,0.88
8746.00,0.88
8744.00,0.88
8742.00,0.89
8740.00,0.89
8738.00,0.89
8736.00,0.89
8734.00,0.89
8732.00,0.89
8730.00,0.89
8728.00,0.89
8726.00,0.89
8724.00,0.89
8722.00,0.89
8720.00,0.89
8718.00,0.89
8716.00,0.89
8714.00,0.89
8712.00,0.89
8710.00,0.89
8708.00,0.89
8706.00,0.89
8704.00,0.89
8702.00,0.89
8700.00,0.89
8698.00,0.89
8696.00,0.89
8694.00,0.89
8692.00,0.89
8690.00,0.89
8688.00,0.89
8686.00,0.89
8684.00,0.88
8682.00,0.88
8680.00,0.88
8678.00,0.88
8676.00,0.88
8674.00,0.88
8672.00,0.88
8670.00,0.88
8668.00,0.88
8666.00,0.88
8664.00,0.88
8662.00,0.88
8660.00,0.88
8658.00,0.88
8656.00,0.88
8654.00,0.88
8652.00,0.88
8650.00,0.88
8648.00,0.88
8646.00,0.88
8644.00,0.87
8642.00,0.87
8640.00,0.87
8638.00,0.87
8636.00,0.87
8634.00,0.87
8632.00,0.87
8630.00,0.87
8628.00,0.87
8626.00,0.88
8624.00,0.88
8622.00,0.88
8620.00,0.88
8618.00,0.88
8616.00,0.88
8614.00,0.88
8612.00,0.88
8610.00,0.88
8608.00,0.88
8606.00,0.88
8604.00,0.88
8602.00,0.88
8600.00,0.88
8598.00,0.88
8596.00,0.88
8594.00,0.88
8592.00,0.88
8590.00,0.88
8588.00,0.88
8586.00,0.88
8584.00,0.88
8582.00,0.88
8580.00,0.88
8578.00,0.88
8576.00,0.88
8574.00,0.88
8572.00,0.88
8570.00,0.88
8568.00,0.88
8566.00,0.89
8564.00,0.89
8562.00,0.89
8560.00,0.89
8558.00,0.89
8556.00,0.89
8554.00,0.89
8552.00,0.89
8550.00,0.89
8548.00,0.89
8546.00,0.89
8544.00,0.89
8542.00,0.89
8540.00,0.89
8538.00,0.89
8536.00,0.89
8534.00,0.89
8532.00,0.89
8530.00,0.89
8528.00,0.89
8526.00,0.89
8524.00,0.89
8522.00,0.89
8520.00,0.89
8518.00,0.89
8516.00,0.89
8514.00,0.89
8512.00,0.89
8510.00,0.89
8508.00,0.89
8506.00,0.89
8504.00,0.89
8502.00,0.89
8500.00,0.89
8498.00,0.89
8496.00,0.89
8494.00,0.89
8492.00,0.89
8490.00,0.89
8488.00,0.89
8486.00,0.89
8484.00,0.89
8482.00,0.89
8480.00,0.89
8478.00,0.88
8476.00,0.88
8474.00,0.88
8472.00,0.88
8470.00,0.88
8468.00,0.88
8466.00,0.88
8464.00,0.88
8462.00,0.88
8460.00,0.88
8458.00,0.88
8456.00,0.88
8454.00,0.88
8452.00,0.88
8450.00,0.88
8448.00,0.88
8446.00,0.88
8444.00,0.88
8442.00,0.88
8440.00,0.88
8438.00,0.88
8436.00,0.88
8434.00,0.88
8432.00,0.88
8430.00,0.88
8428.00,0.88
8426.00,0.88
8424.00,0.88
8422.00,0.88
8420.00,0.88
8418.00,0.88
8416.00,0.89
8414.00,0.89
8412.00,0.89
8410.00,0.89
8408.00,0.89
8406.00,0.89
8404.00,0.89
8402.00,0.89
8400.00,0.89
8398.00,0.89
8396.00,0.89
8394.00,0.89
8392.00,0.89
8390.00,0.89
8388.00,0.89
8386.00,0.89
8384.00,0.89
8382.00,0.89
8380.00,0.89
8378.00,0.89
8376.00,0.89
8374.00,0.89
8372.00,0.89
8370.00,0.89
8368.00,0.89
8366.00,0.89
8364.00,0.89
8362.00,0.89
8360.00,0.89
8358.00,0.89
8356.00,0.89
8354.00,0.89
8352.00,0.89
8350.00,0.89
8348.00,0.89
8346.00,0.89
8344.00,0.88
8342.00,0.88
8340.00,0.88
8338.00,0.88
8336.00,0.88
8334.00,0.88
8332.00,0.88
8330.00,0.88
8328.00,0.88
8326.00,0.88
8324.00,0.88
8322.00,0.88
8320.00,0.88
8318.00,0.88
8316.00,0.88
8314.00,0.88
8312.00,0.88
8310.00,0.88
8308.00,0.88
8306.00,0.88
8304.00,0.88
8302.00,0.88
8300.00,0.88
8298.00,0.89
8296.00,0.89
8294.00,0.89
8292.00,0.89
8290.00,0.89
8288.00,0.89
8286.00,0.89
8284.00,0.89
8282.00,0.89
8280.00,0.89
8278.00,0.89
8276.00,0.89
8274.00,0.89
8272.00,0.89
8270.00,0.89
8268.00,0.89
8266.00,0.88
8264.00,0.88
8262.00,0.88
8260.00,0.88
8258.00,0.88
8256.00,0.88
8254.00,0.88
8252.00,0.88
8250.00,0.88
8248.00,0.88
8246.00,0.88
8244.00,0.88
8242.00,0.88
8240.00,0.88
8238.00,0.88
8236.00,0.88
8234.00,0.88
8232.00,0.88
8230.00,0.88
8228.00,0.88
8226.00,0.88
8224.00,0.88
8222.00,0.88
8220.00,0.88
8218.00,0.88
8216.00,0.88
8214.00,0.88
8212.00,0.88
8210.00,0.88
8208.00,0.88
8206.00,0.88
8204.00,0.88
8202.00,0.88
8200.00,0.88
8198.00,0.88
8196.00,0.88
8194.00,0.88
8192.00,0.88
8190.00,0.88
8188.00,0.88
8186.00,0.88
8184.00,0.88
8182.00,0.88
8180.00,0.88
8178.00,0.88
8176.00,0.88
8174.00,0.88
8172.00,0.88
8170.00,0.88
8168.00,0.88
8166.00,0.88
8164.00,0.88
8162.00,0.88
8160.00,0.88
8158.00,0.88
8156.00,0.88
8154.00,0.88
8152.00,0.88
8150.00,0.88
8148.00,0.88
8146.00,0.88
8144.00,0.88
8142.00,0.88
8140.00,0.88
8138.00,0.88
8136.00,0.88
8134.00,0.88
8132.00,0.88
8130.00,0.88
8128.00,0.88
8126.00,0.88
8124.00,0.88
8122.00,0.88
8120.00,0.88
8118.00,0.88
8116.00,0.88
8114.00,0.88
8112.00,0.88
8110.00,0.88
8108.00,0.88
8106.00,0.88
8104.00,0.88
8102.00,0.88
8100.00,0.88
8098.00,0.88
8096.00,0.88
8094.00,0.88
8092.00,0.88
8090.00,0.88
8088.00,0.88
8086.00,0.88
8084.00,0.88
8082.00,0.88
8080.00,0.88
8078.00,0.88
8076.00,0.88
8074.00,0.88
8072.00,0.88
8070.00,0.88
8068.00,0.88
8066.00,0.88
8064.00,0.88
8062.00,0.88
8060.00,0.88
8058.00,0.88
8056.00,0.88
8054.00,0.88
8052.00,0.88
8050.00,0.88
8048.00,0.88
8046.00,0.88
8044.00,0.88
8042.00,0.88
8040.00,0.88
8038.00,0.88
8036.00,0.88
8034.00,0.88
8032.00,0.88
8030.00,0.88
8028.00,0.88
8026.00,0.88
8024.00,0.89
8022.00,0.89
8020.00,0.89
8018.00,0.89
8016.00,0.89
8014.00,0.89
8012.00,0.89
8010.00,0.89
8008.00,0.89
8006.00,0.89
8004.00,0.89
8002.00,0.89
8000.00,0.89
7998.00,0.89
7996.00,0.89
7994.00,0.89
7992.00,0.89
7990.00,0.89
7988.00,0.89
7986.00,0.89
7984.00,0.89
7982.00,0.89
7980.00,0.89
7978.00,0.89
7976.00,0.89
7974.00,0.89
7972.00,0.89
7970.00,0.89
7968.00,0.89
7966.00,0.89
7964.00,0.89
7962.00,0.89
7960.00,0.89
7958.00,0.89
7956.00,0.89
7954.00,0.89
7952.00,0.89
7950.00,0.89
7948.00,0.89
7946.00,0.89
7944.00,0.89
7942.00,0.89
7940.00,0.89
7938.00,0.89
7936.00,0.89
7934.00,0.89
7932.00,0.89
7930.00,0.89
7928.00,0.89
7926.00,0.89
7924.00,0.89
7922.00,0.89
7920.00,0.89
7918.00,0.89
7916.00,0.89
7914.00,0.89
7912.00,0.89
7910.00,0.89
7908.00,0.89
7906.00,0.89
7904.00,0.89
7902.00,0.89
7900.00,0.89
7898.00,0.89
7896.00,0.89
7894.00,0.89
7892.00,0.89
7890.00,0.89
7888.00,0.89
7886.00,0.89
7884.00,0.89
7882.00,0.89
7880.00,0.89
7878.00,0.89
7876.00,0.89
7874.00,0.89
7872.00,0.89
7870.00,0.89
7868.00,0.89
7866.00,0.89
7864.00,0.89
7862.00,0.89
7860.00,0.89
7858.00,0.89
7856.00,0.89
7854.00,0.89
7852.00,0.89
7850.00,0.89
7848.00,0.89
7846.00,0.90
7844.00,0.90
7842.00,0.90
7840.00,0.90
7838.00,0.90
7836.00,0.90
7834.00,0.90
7832.00,0.90
7830.00,0.90
7828.00,0.90
7826.00,0.90
7824.00,0.90
7822.00,0.90
7820.00,0.90
7818.00,0.90
7816.00,0.90
7814.00,0.90
7812.00,0.90
7810.00,0.90
7808.00,0.90
7806.00,0.90
7804.00,0.90
7802.00,0.90
7800.00,0.90
7798.00,0.90
7796.00,0.90
7794.00,0.90
7792.00,0.90
7790.00,0.90
7788.00,0.90
7786.00,0.89
7784.00,0.89
7782.00,0.89
7780.00,0.89
7778.00,0.89
7776.00,0.89
7774.00,0.89
7772.00,0.89
7770.00,0.89
7768.00,0.89
7766.00,0.89
7764.00,0.89
7762.00,0.89
7760.00,0.89
7758.00,0.89
7756.00,0.89
7754.00,0.90
7752.00,0.90
7750.00,0.90
7748.00,0.90
7746.00,0.90
7744.00,0.90
7742.00,0.90
7740.00,0.90
7738.00,0.90
7736.00,0.90
7734.00,0.90
7732.00,0.90
7730.00,0.90
7728.00,0.90
7726.00,0.90
7724.00,0.90
7722.00,0.90
7720.00,0.90
7718.00,0.90
7716.00,0.90
7714.00,0.90
7712.00,0.90
7710.00,0.90
7708.00,0.90
7706.00,0.89
7704.00,0.89
7702.00,0.89
7700.00,0.89
7698.00,0.89
7696.00,0.89
7694.00,0.89
7692.00,0.89
7690.00,0.89
7688.00,0.89
7686.00,0.89
7684.00,0.89
7682.00,0.89
7680.00,0.89
7678.00,0.89
7676.00,0.89
7674.00,0.89
7672.00,0.90
7670.00,0.90
7668.00,0.90
7666.00,0.90
7664.00,0.90
7662.00,0.90
7660.00,0.90
7658.00,0.90
7656.00,0.90
7654.00,0.90
7652.00,0.90
7650.00,0.90
7648.00,0.90
7646.00,0.90
7644.00,0.90
7642.00,0.90
7640.00,0.90
7638.00,0.90
7636.00,0.90
7634.00,0.90
7632.00,0.90
7630.00,0.90
7628.00,0.90
7626.00,0.90
7624.00,0.90
7622.00,0.90
7620.00,0.90
7618.00,0.90
7616.00,0.90
7614.00,0.90
7612.00,0.90
7610.00,0.90
7608.00,0.90
7606.00,0.90
7604.00,0.90
7602.00,0.90
7600.00,0.90
7598.00,0.90
7596.00,0.90
7594.00,0.90
7592.00,0.90
7590.00,0.90
7588.00,0.90
7586.00,0.90
7584.00,0.90
7582.00,0.90
7580.00,0.90
7578.00,0.90
7576.00,0.90
7574.00,0.90
7572.00,0.90
7570.00,0.90
7568.00,0.90
7566.00,0.90
7564.00,0.90
7562.00,0.90
7560.00,0.90
7558.00,0.90
7556.00,0.90
7554.00,0.90
7552.00,0.90
7550.00,0.90
7548.00,0.90
7546.00,0.90
7544.00,0.90
7542.00,0.90
7540.00,0.90
7538.00,0.90
7536.00,0.90
7534.00,0.90
7532.00,0.90
7530.00,0.90
7528.00,0.90
7526.00,0.90
7524.00,0.90
7522.00,0.90
7520.00,0.90
7518.00,0.90
7516.00,0.90
7514.00,0.90
7512.00,0.90
7510.00,0.90
7508.00,0.90
7506.00,0.89
7504.00,0.89
7502.00,0.89
7500.00,0.89
7498.00,0.89
7496.00,0.89
7494.00,0.89
7492.00,0.89
7490.00,0.89
7488.00,0.89
7486.00,0.89
7484.00,0.89
7482.00,0.89
7480.00,0.89
7478.00,0.90
7476.00,0.90
7474.00,0.90
7472.00,0.90
7470.00,0.90
7468.00,0.90
7466.00,0.90
7464.00,0.90
7462.00,0.90
7460.00,0.90
7458.00,0.90
7456.00,0.89
7454.00,0.89
7452.00,0.89
7450.00,0.89
7448.00,0.89
7446.00,0.89
7444.00,0.89
7442.00,0.89
7440.00,0.89
7438.00,0.89
7436.00,0.89
7434.00,0.89
7432.00,0.89
7430.00,0.89
7428.00,0.89
7426.00,0.89
7424.00,0.89
7422.00,0.89
7420.00,0.89
7418.00,0.89
7416.00,0.89
7414.00,0.89
7412.00,0.90
7410.00,0.90
7408.00,0.90
7406.00,0.90
7404.00,0.90
7402.00,0.90
7400.00,0.90
7398.00,0.90
7396.00,0.90
7394.00,0.89
7392.00,0.89
7390.00,0.89
7388.00,0.89
7386.00,0.89
7384.00,0.89
7382.00,0.89
7380.00,0.89
7378.00,0.89
7376.00,0.89
7374.00,0.89
7372.00,0.89
7370.00,0.89
7368.00,0.89
7366.00,0.89
7364.00,0.89
7362.00,0.89
7360.00,0.89
7358.00,0.89
7356.00,0.89
7354.00,0.88
7352.00,0.88
7350.00,0.88
7348.00,0.88
7346.00,0.88
7344.00,0.88
7342.00,0.88
7340.00,0.88
7338.00,0.88
7336.00,0.88
7334.00,0.88
7332.00,0.88
7330.00,0.88
7328.00,0.88
7326.00,0.88
7324.00,0.88
7322.00,0.88
7320.00,0.88
7318.00,0.88
7316.00,0.88
7314.00,0.88
7312.00,0.88
7310.00,0.88
7308.00,0.88
7306.00,0.88
7304.00,0.88
7302.00,0.88
7300.00,0.88
7298.00,0.88
7296.00,0.88
7294.00,0.88
7292.00,0.88
7290.00,0.88
7288.00,0.88
7286.00,0.88
7284.00,0.88
7282.00,0.88
7280.00,0.88
7278.00,0.88
7276.00,0.88
7274.00,0.88
7272.00,0.88
7270.00,0.88
7268.00,0.88
7266.00,0.88
7264.00,0.88
7262.00,0.88
7260.00,0.88
7258.00,0.88
7256.00,0.88
7254.00,0.88
7252.00,0.88
7250.00,0.88
7248.00,0.88
7246.00,0.88
7244.00,0.88
7242.00,0.88
7240.00,0.88
7238.00,0.88
7236.00,0.88
7234.00,0.87
7232.00,0.87
7230.00,0.87
7228.00,0.87
7226.00,0.87
7224.00,0.87
7222.00,0.87
7220.00,0.87
7218.00,0.87
7216.00,0.87
7214.00,0.87
7212.00,0.87
7210.00,0.87
7208.00,0.87
7206.00,0.87
7204.00,0.87
7202.00,0.86
7200.00,0.86
7198.00,0.86
7196.00,0.86
7194.00,0.86
7192.00,0.86
7190.00,0.86
7188.00,0.85
7186.00,0.85
7184.00,0.85
7182.00,0.85
7180.00,0.85
7178.00,0.85
7176.00,0.85
7174.00,0.85
7172.00,0.84
7170.00,0.84
7168.00,0.84
7166.00,0.84
7164.00,0.84
7162.00,0.84
7160.00,0.84
7158.00,0.84
7156.00,0.84
7154.00,0.84
7152.00,0.84
7150.00,0.84
7148.00,0.84
7146.00,0.84
7144.00,0.84
7142.00,0.84
7140.00,0.84
7138.00,0.83
7136.00,0.83
7134.00,0.83
7132.00,0.83
7130.00,0.83
7128.00,0.83
7126.00,0.83
7124.00,0.83
7122.00,0.83
7120.00,0.83
7118.00,0.83
7116.00,0.83
7114.00,0.83
7112.00,0.83
7110.00,0.83
7108.00,0.83
7106.00,0.83
7104.00,0.83
7102.00,0.83
7100.00,0.82
7098.00,0.82
7096.00,0.82
7094.00,0.82
7092.00,0.82
7090.00,0.82
7088.00,0.82
7086.00,0.82
7084.00,0.82
7082.00,0.82
7080.00,0.82
7078.00,0.82
7076.00,0.82
7074.00,0.82
7072.00,0.82
7070.00,0.82
7068.00,0.82
7066.00,0.82
7064.00,0.82
7062.00,0.82
7060.00,0.82
7058.00,0.82
7056.00,0.82
7054.00,0.82
7052.00,0.82
7050.00,0.82
7048.00,0.82
7046.00,0.82
7044.00,0.82
7042.00,0.82
7040.00,0.82
7038.00,0.82
7036.00,0.82
7034.00,0.82
7032.00,0.82
7030.00,0.82
7028.00,0.81
7026.00,0.81
7024.00,0.81
7022.00,0.81
7020.00,0.81
7018.00,0.81
7016.00,0.81
7014.00,0.81
7012.00,0.81
7010.00,0.81
7008.00,0.81
7006.00,0.81
7004.00,0.81
7002.00,0.81
7000.00,0.81
6998.00,0.81
6996.00,0.81
6994.00,0.81
6992.00,0.81
6990.00,0.81
6988.00,0.81
6986.00,0.81
6984.00,0.81
6982.00,0.81
6980.00,0.81
6978.00,0.81
6976.00,0.81
6974.00,0.81
6972.00,0.81
6970.00,0.81
6968.00,0.81
6966.00,0.81
6964.00,0.81
6962.00,0.81
6960.00,0.81
6958.00,0.81
6956.00,0.81
6954.00,0.81
6952.00,0.81
6950.00,0.81
6948.00,0.81
6946.00,0.81
6944.00,0.81
6942.00,0.81
6940.00,0.81
6938.00,0.81
6936.00,0.81
6934.00,0.81
6932.00,0.81
6930.00,0.81
6928.00,0.81
6926.00,0.81
6924.00,0.81
6922.00,0.81
6920.00,0.81
6918.00,0.81
6916.00,0.81
6914.00,0.81
6912.00,0.81
6910.00,0.81
6908.00,0.81
6906.00,0.81
6904.00,0.81
6902.00,0.81
6900.00,0.81
6898.00,0.81
6896.00,0.81
6894.00,0.81
6892.00,0.81
6890.00,0.81
6888.00,0.81
6886.00,0.81
6884.00,0.81
6882.00,0.81
6880.00,0.81
6878.00,0.81
6876.00,0.81
6874.00,0.81
6872.00,0.81
6870.00,0.81
6868.00,0.81
6866.00,0.81
6864.00,0.81
6862.00,0.81
6860.00,0.81
6858.00,0.81
6856.00,0.81
6854.00,0.81
6852.00,0.81
6850.00,0.81
6848.00,0.81
6846.00,0.81
6844.00,0.81
6842.00,0.81
6840.00,0.81
6838.00,0.81
6836.00,0.81
6834.00,0.81
6832.00,0.81
6830.00,0.81
6828.00,0.81
6826.00,0.81
6824.00,0.81
6822.00,0.81
6820.00,0.81
6818.00,0.81
6816.00,0.81
6814.00,0.82
6812.00,0.82
6810.00,0.82
6808.00,0.82
6806.00,0.82
6804.00,0.82
6802.00,0.82
6800.00,0.82
6798.00,0.82
6796.00,0.82
6794.00,0.82
6792.00,0.82
6790.00,0.82
6788.00,0.82
6786.00,0.82
6784.00,0.82
6782.00,0.82
6780.00,0.82
6778.00,0.82
6776.00,0.82
6774.00,0.82
6772.00,0.82
6770.00,0.82
6768.00,0.82
6766.00,0.82
6764.00,0.82
6762.00,0.82
6760.00,0.82
6758.00,0.82
6756.00,0.82
6754.00,0.82
6752.00,0.82
6750.00,0.82
6748.00,0.82
6746.00,0.82
6744.00,0.82
6742.00,0.82
6740.00,0.82
6738.00,0.82
6736.00,0.82
6734.00,0.82
6732.00,0.83
6730.00,0.83
6728.00,0.83
6726.00,0.83
6724.00,0.83
6722.00,0.83
6720.00,0.83
6718.00,0.83
6716.00,0.83
6714.00,0.83
6712.00,0.83
6710.00,0.83
6708.00,0.83
6706.00,0.83
6704.00,0.83
6702.00,0.83
6700.00,0.84
6698.00,0.84
6696.00,0.84
6694.00,0.84
6692.00,0.84
6690.00,0.84
6688.00,0.84
6686.00,0.84
6684.00,0.84
6682.00,0.84
6680.00,0.84
6678.00,0.84
6676.00,0.84
6674.00,0.84
6672.00,0.84
6670.00,0.84
6668.00,0.84
6666.00,0.84
6664.00,0.84
6662.00,0.84
6660.00,0.84
6658.00,0.84
6656.00,0.84
6654.00,0.84
6652.00,0.84
6650.00,0.84
6648.00,0.84
6646.00,0.84
6644.00,0.84
6642.00,0.84
6640.00,0.84
6638.00,0.84
6636.00,0.84
6634.00,0.85
6632.00,0.85
6630.00,0.85
6628.00,0.85
6626.00,0.85
6624.00,0.85
6622.00,0.85
6620.00,0.85
6618.00,0.85
6616.00,0.85
6614.00,0.85
6612.00,0.85
6610.00,0.85
6608.00,0.85
6606.00,0.85
6604.00,0.85
6602.00,0.85
6600.00,0.85
6598.00,0.85
6596.00,0.85
6594.00,0.85
6592.00,0.85
6590.00,0.85
6588.00,0.85
6586.00,0.85
6584.00,0.85
6582.00,0.85
6580.00,0.85
6578.00,0.85
6576.00,0.85
6574.00,0.85
6572.00,0.85
6570.00,0.85
6568.00,0.85
6566.00,0.85
6564.00,0.85
6562.00,0.86
6560.00,0.86
6558.00,0.86
6556.00,0.86
6554.00,0.86
6552.00,0.86
6550.00,0.86
6548.00,0.86
6546.00,0.86
6544.00,0.86
6542.00,0.86
6540.00,0.86
6538.00,0.86
6536.00,0.86
6534.00,0.86
6532.00,0.86
6530.00,0.86
6528.00,0.86
6526.00,0.86
6524.00,0.86
6522.00,0.86
6520.00,0.86
6518.00,0.86
6516.00,0.86
6514.00,0.86
6512.00,0.86
6510.00,0.86
6508.00,0.86
6506.00,0.87
6504.00,0.87
6502.00,0.87
6500.00,0.87
6498.00,0.87
6496.00,0.87
6494.00,0.87
6492.00,0.87
6490.00,0.87
6488.00,0.87
6486.00,0.87
6484.00,0.87
6482.00,0.87
6480.00,0.87
6478.00,0.87
6476.00,0.87
6474.00,0.87
6472.00,0.87
6470.00,0.87
6468.00,0.87
6466.00,0.87
6464.00,0.87
6462.00,0.87
6460.00,0.87
6458.00,0.87
6456.00,0.87
6454.00,0.87
6452.00,0.87
6450.00,0.87
6448.00,0.87
6446.00,0.87
6444.00,0.87
6442.00,0.87
6440.00,0.87
6438.00,0.87
6436.00,0.88
6434.00,0.88
6432.00,0.88
6430.00,0.88
6428.00,0.88
6426.00,0.88
6424.00,0.88
6422.00,0.88
6420.00,0.88
6418.00,0.88
6416.00,0.88
6414.00,0.88
6412.00,0.88
6410.00,0.88
6408.00,0.88
6406.00,0.88
6404.00,0.88
6402.00,0.88
6400.00,0.88
6398.00,0.88
6396.00,0.88
6394.00,0.88
6392.00,0.88
6390.00,0.88
6388.00,0.88
6386.00,0.88
6384.00,0.88
6382.00,0.88
6380.00,0.88
6378.00,0.88
6376.00,0.88
6374.00,0.88
6372.00,0.88
6370.00,0.88
6368.00,0.88
6366.00,0.88
6364.00,0.88
6362.00,0.88
6360.00,0.88
6358.00,0.88
6356.00,0.88
6354.00,0.88
6352.00,0.88
6350.00,0.88
6348.00,0.88
6346.00,0.88
6344.00,0.88
6342.00,0.88
6340.00,0.88
6338.00,0.88
6336.00,0.88
6334.00,0.88
6332.00,0.88
6330.00,0.88
6328.00,0.88
6326.00,0.88
6324.00,0.89
6322.00,0.89
6320.00,0.89
6318.00,0.89
6316.00,0.89
6314.00,0.89
6312.00,0.89
6310.00,0.89
6308.00,0.89
6306.00,0.89
6304.00,0.89
6302.00,0.89
6300.00,0.89
6298.00,0.89
6296.00,0.89
6294.00,0.89
6292.00,0.89
6290.00,0.89
6288.00,0.89
6286.00,0.89
6284.00,0.89
6282.00,0.89
6280.00,0.89
6278.00,0.89
6276.00,0.89
6274.00,0.89
6272.00,0.89
6270.00,0.89
6268.00,0.89
6266.00,0.89
6264.00,0.89
6262.00,0.89
6260.00,0.89
6258.00,0.89
6256.00,0.89
6254.00,0.89
6252.00,0.89
6250.00,0.90
6248.00,0.90
6246.00,0.90
6244.00,0.90
6242.00,0.90
6240.00,0.90
6238.00,0.90
6236.00,0.90
6234.00,0.90
6232.00,0.90
6230.00,0.89
6228.00,0.89
6226.00,0.89
6224.00,0.89
6222.00,0.89
6220.00,0.89
6218.00,0.89
6216.00,0.89
6214.00,0.89
6212.00,0.89
6210.00,0.89
6208.00,0.89
6206.00,0.90
6204.00,0.90
6202.00,0.90
6200.00,0.90
6198.00,0.90
6196.00,0.90
6194.00,0.90
6192.00,0.90
6190.00,0.90
6188.00,0.90
6186.00,0.90
6184.00,0.90
6182.00,0.90
6180.00,0.90
6178.00,0.90
6176.00,0.90
6174.00,0.90
6172.00,0.90
6170.00,0.90
6168.00,0.90
6166.00,0.90
6164.00,0.90
6162.00,0.90
6160.00,0.90
6158.00,0.90
6156.00,0.90
6154.00,0.90
6152.00,0.90
6150.00,0.90
6148.00,0.90
6146.00,0.90
6144.00,0.90
6142.00,0.90
6140.00,0.90
6138.00,0.90
6136.00,0.90
6134.00,0.90
6132.00,0.90
6130.00,0.90
6128.00,0.90
6126.00,0.90
6124.00,0.90
6122.00,0.90
6120.00,0.90
6118.00,0.90
6116.00,0.90
6114.00,0.90
6112.00,0.90
6110.00,0.90
6108.00,0.90
6106.00,0.90
6104.00,0.90
6102.00,0.90
6100.00,0.90
6098.00,0.90
6096.00,0.90
6094.00,0.90
6092.00,0.91
6090.00,0.91
6088.00,0.91
6086.00,0.91
6084.00,0.91
6082.00,0.91
6080.00,0.91
6078.00,0.91
6076.00,0.91
6074.00,0.91
6072.00,0.91
6070.00,0.91
6068.00,0.91
6066.00,0.91
6064.00,0.91
6062.00,0.91
6060.00,0.91
6058.00,0.91
6056.00,0.91
6054.00,0.91
6052.00,0.91
6050.00,0.91
6048.00,0.91
6046.00,0.91
6044.00,0.91
6042.00,0.91
6040.00,0.91
6038.00,0.91
6036.00,0.91
6034.00,0.91
6032.00,0.91
6030.00,0.91
6028.00,0.91
6026.00,0.91
6024.00,0.91
6022.00,0.91
6020.00,0.91
6018.00,0.91
6016.00,0.91
6014.00,0.91
6012.00,0.91
6010.00,0.91
6008.00,0.91
6006.00,0.91
6004.00,0.91
6002.00,0.91
6000.00,0.91
5998.00,0.91
5996.00,0.91
5994.00,0.91
5992.00,0.91
5990.00,0.91
5988.00,0.91
5986.00,0.91
5984.00,0.91
5982.00,0.91
5980.00,0.91
5978.00,0.91
5976.00,0.91
5974.00,0.91
5972.00,0.91
5970.00,0.91
5968.00,0.91
5966.00,0.91
5964.00,0.91
5962.00,0.90
5960.00,0.90
5958.00,0.90
5956.00,0.90
5954.00,0.90
5952.00,0.90
5950.00,0.90
5948.00,0.90
5946.00,0.90
5944.00,0.90
5942.00,0.90
5940.00,0.90
5938.00,0.90
5936.00,0.90
5934.00,0.90
5932.00,0.90
5930.00,0.90
5928.00,0.90
5926.00,0.90
5924.00,0.90
5922.00,0.90
5920.00,0.90
5918.00,0.90
5916.00,0.90
5914.00,0.90
5912.00,0.90
5910.00,0.90
5908.00,0.90
5906.00,0.90
5904.00,0.90
5902.00,0.90
5900.00,0.90
5898.00,0.90
5896.00,0.90
5894.00,0.90
5892.00,0.90
5890.00,0.90
5888.00,0.90
5886.00,0.90
5884.00,0.90
5882.00,0.90
5880.00,0.90
5878.00,0.90
5876.00,0.90
5874.00,0.90
5872.00,0.90
5870.00,0.90
5868.00,0.90
5866.00,0.90
5864.00,0.90
5862.00,0.90
5860.00,0.90
5858.00,0.90
5856.00,0.90
5854.00,0.90
5852.00,0.90
5850.00,0.90
5848.00,0.90
5846.00,0.90
5844.00,0.90
5842.00,0.90
5840.00,0.90
5838.00,0.90
5836.00,0.90
5834.00,0.91
5832.00,0.91
5830.00,0.91
5828.00,0.91
5826.00,0.91
5824.00,0.91
5822.00,0.91
5820.00,0.91
5818.00,0.91
5816.00,0.91
5814.00,0.91
5812.00,0.91
5810.00,0.91
5808.00,0.91
5806.00,0.91
5804.00,0.91
5802.00,0.91
5800.00,0.91
5798.00,0.91
5796.00,0.91
5794.00,0.91
5792.00,0.91
5790.00,0.91
5788.00,0.90
5786.00,0.90
5784.00,0.90
5782.00,0.90
5780.00,0.90
5778.00,0.90
5776.00,0.90
5774.00,0.90
5772.00,0.90
5770.00,0.90
5768.00,0.90
5766.00,0.90
5764.00,0.90
5762.00,0.90
5760.00,0.90
5758.00,0.90
5756.00,0.90
5754.00,0.90
5752.00,0.90
5750.00,0.90
5748.00,0.90
5746.00,0.90
5744.00,0.90
5742.00,0.90
5740.00,0.90
5738.00,0.90
5736.00,0.90
5734.00,0.90
5732.00,0.90
5730.00,0.90
5728.00,0.90
5726.00,0.90
5724.00,0.90
5722.00,0.90
5720.00,0.90
5718.00,0.90
5716.00,0.90
5714.00,0.91
5712.00,0.91
5710.00,0.91
5708.00,0.91
5706.00,0.91
5704.00,0.91
5702.00,0.91
5700.00,0.90
5698.00,0.90
5696.00,0.90
5694.00,0.90
5692.00,0.90
5690.00,0.90
5688.00,0.90
5686.00,0.90
5684.00,0.90
5682.00,0.90
5680.00,0.90
5678.00,0.90
5676.00,0.90
5674.00,0.90
5672.00,0.90
5670.00,0.90
5668.00,0.90
5666.00,0.90
5664.00,0.90
5662.00,0.90
5660.00,0.90
5658.00,0.90
5656.00,0.90
5654.00,0.90
5652.00,0.90
5650.00,0.90
5648.00,0.90
5646.00,0.90
5644.00,0.90
5642.00,0.90
5640.00,0.91
5638.00,0.91
5636.00,0.91
5634.00,0.91
5632.00,0.91
5630.00,0.91
5628.00,0.91
5626.00,0.91
5624.00,0.91
5622.00,0.91
5620.00,0.91
5618.00,0.91
5616.00,0.91
5614.00,0.91
5612.00,0.91
5610.00,0.91
5608.00,0.91
5606.00,0.91
5604.00,0.91
5602.00,0.91
5600.00,0.91
5598.00,0.91
5596.00,0.91
5594.00,0.91
5592.00,0.91
5590.00,0.91
5588.00,0.91
5586.00,0.91
5584.00,0.91
5582.00,0.91
5580.00,0.91
5578.00,0.91
5576.00,0.91
5574.00,0.91
5572.00,0.91
5570.00,0.91
5568.00,0.91
5566.00,0.91
5564.00,0.91
5562.00,0.91
5560.00,0.91
5558.00,0.91
5556.00,0.91
5554.00,0.91
5552.00,0.91
5550.00,0.91
5548.00,0.91
5546.00,0.91
5544.00,0.91
5542.00,0.91
5540.00,0.91
5538.00,0.91
5536.00,0.91
5534.00,0.91
5532.00,0.91
5530.00,0.91
5528.00,0.91
5526.00,0.91
5524.00,0.91
5522.00,0.91
5520.00,0.91
5518.00,0.91
5516.00,0.91
5514.00,0.91
5512.00,0.91
5510.00,0.91
5508.00,0.91
5506.00,0.91
5504.00,0.91
5502.00,0.91
5500.00,0.91
5498.00,0.91
5496.00,0.91
5494.00,0.91
5492.00,0.91
5490.00,0.91
5488.00,0.91
5486.00,0.91
5484.00,0.91
5482.00,0.91
5480.00,0.91
5478.00,0.91
5476.00,0.91
5474.00,0.91
5472.00,0.91
5470.00,0.91
5468.00,0.91
5466.00,0.91
5464.00,0.91
5462.00,0.91
5460.00,0.91
5458.00,0.91
5456.00,0.91
5454.00,0.91
5452.00,0.91
5450.00,0.91
5448.00,0.91
5446.00,0.91
5444.00,0.91
5442.00,0.91
5440.00,0.91
5438.00,0.91
5436.00,0.91
5434.00,0.91
5432.00,0.91
5430.00,0.91
5428.00,0.91
5426.00,0.91
5424.00,0.91
5422.00,0.91
5420.00,0.91
5418.00,0.91
5416.00,0.91
5414.00,0.91
5412.00,0.91
5410.00,0.91
5408.00,0.91
5406.00,0.91
5404.00,0.91
5402.00,0.91
5400.00,0.91
5398.00,0.91
5396.00,0.91
5394.00,0.91
5392.00,0.91
5390.00,0.91
5388.00,0.91
5386.00,0.91
5384.00,0.91
5382.00,0.91
5380.00,0.91
5378.00,0.91
5376.00,0.91
5374.00,0.90
5372.00,0.90
5370.00,0.90
5368.00,0.90
5366.00,0.90
5364.00,0.90
5362.00,0.90
5360.00,0.90
5358.00,0.89
5356.00,0.89
5354.00,0.89
5352.00,0.89
5350.00,0.89
5348.00,0.89
5346.00,0.88
5344.00,0.88
5342.00,0.88
5340.00,0.88
5338.00,0.88
5336.00,0.87
5334.00,0.87
5332.00,0.87
5330.00,0.87
5328.00,0.87
5326.00,0.86
5324.00,0.86
5322.00,0.86
5320.00,0.86
5318.00,0.85
5316.00,0.85
5314.00,0.85
5312.00,0.84
5310.00,0.84
5308.00,0.84
5306.00,0.83
5304.00,0.83
5302.00,0.83
5300.00,0.82
5298.00,0.82
5296.00,0.82
5294.00,0.81
5292.00,0.81
5290.00,0.81
5288.00,0.80
5286.00,0.80
5284.00,0.80
5282.00,0.79
5280.00,0.79
5278.00,0.79
5276.00,0.78
5274.00,0.78
5272.00,0.78
5270.00,0.78
5268.00,0.77
5266.00,0.77
5264.00,0.77
5262.00,0.76
5260.00,0.76
5258.00,0.76
5256.00,0.76
5254.00,0.76
5252.00,0.75
5250.00,0.75
5248.00,0.75
5246.00,0.75
5244.00,0.75
5242.00,0.74
5240.00,0.74
5238.00,0.74
5236.00,0.74
5234.00,0.74
5232.00,0.74
5230.00,0.74
5228.00,0.73
5226.00,0.73
5224.00,0.73
5222.00,0.73
5220.00,0.73
5218.00,0.73
5216.00,0.73
5214.00,0.73
5212.00,0.73
5210.00,0.73
5208.00,0.72
5206.00,0.72
5204.00,0.72
5202.00,0.72
5200.00,0.72
5198.00,0.72
5196.00,0.72
5194.00,0.72
5192.00,0.72
5190.00,0.72
5188.00,0.72
5186.00,0.72
5184.00,0.72
5182.00,0.72
5180.00,0.72
5178.00,0.72
5176.00,0.72
5174.00,0.72
5172.00,0.72
5170.00,0.72
5168.00,0.72
5166.00,0.72
5164.00,0.72
5162.00,0.72
5160.00,0.72
5158.00,0.72
5156.00,0.73
5154.00,0.73
5152.00,0.73
5150.00,0.73
5148.00,0.73
5146.00,0.73
5144.00,0.73
5142.00,0.73
5140.00,0.73
5138.00,0.73
5136.00,0.73
5134.00,0.73
5132.00,0.73
5130.00,0.73
5128.00,0.74
5126.00,0.74
5124.00,0.74
5122.00,0.74
5120.00,0.74
5118.00,0.74
5116.00,0.74
5114.00,0.74
5112.00,0.74
5110.00,0.75
5108.00,0.75
5106.00,0.75
5104.00,0.75
5102.00,0.75
5100.00,0.75
5098.00,0.75
5096.00,0.75
5094.00,0.76
5092.00,0.76
5090.00,0.76
5088.00,0.76
5086.00,0.76
5084.00,0.76
5082.00,0.76
5080.00,0.76
5078.00,0.77
5076.00,0.77
5074.00,0.77
5072.00,0.77
5070.00,0.77
5068.00,0.77
5066.00,0.77
5064.00,0.77
5062.00,0.77
5060.00,0.78
5058.00,0.78
5056.00,0.78
5054.00,0.78
5052.00,0.78
5050.00,0.78
5048.00,0.78
5046.00,0.78
5044.00,0.79
5042.00,0.79
5040.00,0.79
5038.00,0.79
5036.00,0.79
5034.00,0.79
5032.00,0.79
5030.00,0.79
5028.00,0.79
5026.00,0.80
5024.00,0.80
5022.00,0.80
5020.00,0.80
5018.00,0.80
5016.00,0.80
5014.00,0.80
5012.00,0.80
5010.00,0.81
5008.00,0.81
5006.00,0.81
5004.00,0.81
5002.00,0.81
5000.00,0.81
4998.00,0.81
4996.00,0.81
4994.00,0.81
4992.00,0.82
4990.00,0.82
4988.00,0.82
4986.00,0.82
4984.00,0.82
4982.00,0.82
4980.00,0.82
4978.00,0.82
4976.00,0.82
4974.00,0.82
4972.00,0.83
4970.00,0.83
4968.00,0.83
4966.00,0.83
4964.00,0.83
4962.00,0.83
4960.00,0.83
4958.00,0.83
4956.00,0.83
4954.00,0.83
4952.00,0.84
4950.00,0.84
4948.00,0.84
4946.00,0.84
4944.00,0.84
4942.00,0.84
4940.00,0.84
4938.00,0.84
4936.00,0.84
4934.00,0.84
4932.00,0.84
4930.00,0.84
4928.00,0.84
4926.00,0.85
4924.00,0.85
4922.00,0.85
4920.00,0.85
4918.00,0.85
4916.00,0.85
4914.00,0.85
4912.00,0.85
4910.00,0.85
4908.00,0.85
4906.00,0.85
4904.00,0.85
4902.00,0.85
4900.00,0.85
4898.00,0.86
4896.00,0.86
4894.00,0.86
4892.00,0.86
4890.00,0.86
4888.00,0.86
4886.00,0.86
4884.00,0.86
4882.00,0.86
4880.00,0.86
4878.00,0.86
4876.00,0.86
4874.00,0.87
4872.00,0.87
4870.00,0.87
4868.00,0.87
4866.00,0.87
4864.00,0.87
4862.00,0.87
4860.00,0.87
4858.00,0.87
4856.00,0.87
4854.00,0.87
4852.00,0.87
4850.00,0.87
4848.00,0.87
4846.00,0.87
4844.00,0.87
4842.00,0.88
4840.00,0.88
4838.00,0.88
4836.00,0.88
4834.00,0.88
4832.00,0.88
4830.00,0.88
4828.00,0.88
4826.00,0.88
4824.00,0.88
4822.00,0.88
4820.00,0.88
4818.00,0.88
4816.00,0.88
4814.00,0.88
4812.00,0.88
4810.00,0.88
4808.00,0.88
4806.00,0.88
4804.00,0.88
4802.00,0.88
4800.00,0.88
4798.00,0.88
4796.00,0.88
4794.00,0.89
4792.00,0.89
4790.00,0.89
4788.00,0.89
4786.00,0.89
4784.00,0.89
4782.00,0.89
4780.00,0.89
4778.00,0.89
4776.00,0.89
4774.00,0.89
4772.00,0.89
4770.00,0.89
4768.00,0.89
4766.00,0.89
4764.00,0.89
4762.00,0.89
4760.00,0.89
4758.00,0.89
4756.00,0.89
4754.00,0.89
4752.00,0.90
4750.00,0.90
4748.00,0.90
4746.00,0.90
4744.00,0.90
4742.00,0.90
4740.00,0.90
4738.00,0.90
4736.00,0.90
4734.00,0.90
4732.00,0.90
4730.00,0.90
4728.00,0.90
4726.00,0.90
4724.00,0.90
4722.00,0.90
4720.00,0.90
4718.00,0.90
4716.00,0.90
4714.00,0.90
4712.00,0.90
4710.00,0.90
4708.00,0.90
4706.00,0.90
4704.00,0.90
4702.00,0.90
4700.00,0.90
4698.00,0.90
4696.00,0.90
4694.00,0.90
4692.00,0.90
4690.00,0.91
4688.00,0.91
4686.00,0.91
4684.00,0.91
4682.00,0.91
4680.00,0.91
4678.00,0.91
4676.00,0.91
4674.00,0.91
4672.00,0.91
4670.00,0.91
4668.00,0.91
4666.00,0.91
4664.00,0.91
4662.00,0.91
4660.00,0.91
4658.00,0.91
4656.00,0.91
4654.00,0.91
4652.00,0.91
4650.00,0.91
4648.00,0.91
4646.00,0.91
4644.00,0.91
4642.00,0.91
4640.00,0.91
4638.00,0.91
4636.00,0.91
4634.00,0.91
4632.00,0.91
4630.00,0.91
4628.00,0.91
4626.00,0.91
4624.00,0.91
4622.00,0.91
4620.00,0.91
4618.00,0.91
4616.00,0.91
4614.00,0.91
4612.00,0.91
4610.00,0.91
4608.00,0.91
4606.00,0.91
4604.00,0.91
4602.00,0.91
4600.00,0.91
4598.00,0.91
4596.00,0.91
4594.00,0.91
4592.00,0.91
4590.00,0.91
4588.00,0.91
4586.00,0.91
4584.00,0.91
4582.00,0.91
4580.00,0.91
4578.00,0.91
4576.00,0.91
4574.00,0.91
4572.00,0.91
4570.00,0.91
4568.00,0.91
4566.00,0.91
4564.00,0.91
4562.00,0.91
4560.00,0.91
4558.00,0.91
4556.00,0.91
4554.00,0.91
4552.00,0.91
4550.00,0.91
4548.00,0.91
4546.00,0.91
4544.00,0.91
4542.00,0.91
4540.00,0.91
4538.00,0.91
4536.00,0.91
4534.00,0.91
4532.00,0.91
4530.00,0.91
4528.00,0.91
4526.00,0.91
4524.00,0.91
4522.00,0.91
4520.00,0.91
4518.00,0.91
4516.00,0.91
4514.00,0.91
4512.00,0.91
4510.00,0.91
4508.00,0.91
4506.00,0.91
4504.00,0.91
4502.00,0.91
4500.00,0.91
4498.00,0.91
4496.00,0.91
4494.00,0.91
4492.00,0.91
4490.00,0.91
4488.00,0.91
4486.00,0.91
4484.00,0.91
4482.00,0.91
4480.00,0.91
4478.00,0.91
4476.00,0.91
4474.00,0.91
4472.00,0.91
4470.00,0.91
4468.00,0.91
4466.00,0.91
4464.00,0.91
4462.00,0.91
4460.00,0.91
4458.00,0.90
4456.00,0.90
4454.00,0.90
4452.00,0.90
4450.00,0.90
4448.00,0.90
4446.00,0.90
4444.00,0.90
4442.00,0.90
4440.00,0.90
4438.00,0.89
4436.00,0.89
4434.00,0.89
4432.00,0.89
4430.00,0.89
4428.00,0.89
4426.00,0.89
4424.00,0.89
4422.00,0.89
4420.00,0.88
4418.00,0.88
4416.00,0.88
4414.00,0.88
4412.00,0.88
4410.00,0.88
4408.00,0.88
4406.00,0.88
4404.00,0.88
4402.00,0.89
4400.00,0.89
4398.00,0.89
4396.00,0.89
4394.00,0.89
4392.00,0.89
4390.00,0.89
4388.00,0.89
4386.00,0.89
4384.00,0.89
4382.00,0.89
4380.00,0.90
4378.00,0.90
4376.00,0.90
4374.00,0.90
4372.00,0.90
4370.00,0.90
4368.00,0.90
4366.00,0.90
4364.00,0.90
4362.00,0.90
4360.00,0.90
4358.00,0.89
4356.00,0.89
4354.00,0.89
4352.00,0.89
4350.00,0.89
4348.00,0.89
4346.00,0.89
4344.00,0.89
4342.00,0.89
4340.00,0.89
4338.00,0.89
4336.00,0.89
4334.00,0.89
4332.00,0.89
4330.00,0.89
4328.00,0.89
4326.00,0.90
4324.00,0.90
4322.00,0.90
4320.00,0.90
4318.00,0.90
4316.00,0.90
4314.00,0.90
4312.00,0.90
4310.00,0.90
4308.00,0.90
4306.00,0.91
4304.00,0.91
4302.00,0.91
4300.00,0.91
4298.00,0.91
4296.00,0.91
4294.00,0.91
4292.00,0.91
4290.00,0.91
4288.00,0.91
4286.00,0.91
4284.00,0.91
4282.00,0.91
4280.00,0.91
4278.00,0.91
4276.00,0.91
4274.00,0.91
4272.00,0.91
4270.00,0.91
4268.00,0.91
4266.00,0.91
4264.00,0.91
4262.00,0.91
4260.00,0.91
4258.00,0.91
4256.00,0.91
4254.00,0.91
4252.00,0.91
4250.00,0.91
4248.00,0.91
4246.00,0.91
4244.00,0.91
4242.00,0.91
4240.00,0.91
4238.00,0.91
4236.00,0.91
4234.00,0.91
4232.00,0.91
4230.00,0.91
4228.00,0.91
4226.00,0.91
4224.00,0.91
4222.00,0.91
4220.00,0.91
4218.00,0.91
4216.00,0.91
4214.00,0.91
4212.00,0.91
4210.00,0.91
4208.00,0.91
4206.00,0.91
4204.00,0.91
4202.00,0.91
4200.00,0.91
4198.00,0.91
4196.00,0.91
4194.00,0.91
4192.00,0.91
4190.00,0.91
4188.00,0.91
4186.00,0.91
4184.00,0.91
4182.00,0.91
4180.00,0.91
4178.00,0.91
4176.00,0.91
4174.00,0.91
4172.00,0.91
4170.00,0.91
4168.00,0.91
4166.00,0.91
4164.00,0.91
4162.00,0.91
4160.00,0.91
4158.00,0.91
4156.00,0.91
4154.00,0.91
4152.00,0.91
4150.00,0.91
4148.00,0.91
4146.00,0.91
4144.00,0.91
4142.00,0.91
4140.00,0.91
4138.00,0.91
4136.00,0.91
4134.00,0.91
4132.00,0.91
4130.00,0.91
4128.00,0.91
4126.00,0.91
4124.00,0.91
4122.00,0.91
4120.00,0.91
4118.00,0.91
4116.00,0.91
4114.00,0.91
4112.00,0.91
4110.00,0.91
4108.00,0.91
4106.00,0.91
4104.00,0.91
4102.00,0.91
4100.00,0.91
4098.00,0.91
4096.00,0.91
4094.00,0.91
4092.00,0.91
4090.00,0.91
4088.00,0.91
4086.00,0.91
4084.00,0.91
4082.00,0.91
4080.00,0.91
4078.00,0.91
4076.00,0.91
4074.00,0.91
4072.00,0.91
4070.00,0.91
4068.00,0.91
4066.00,0.91
4064.00,0.91
4062.00,0.91
4060.00,0.91
4058.00,0.91
4056.00,0.91
4054.00,0.91
4052.00,0.91
4050.00,0.91
4048.00,0.91
4046.00,0.91
4044.00,0.91
4042.00,0.91
4040.00,0.91
4038.00,0.91
4036.00,0.91
4034.00,0.91
4032.00,0.91
4030.00,0.91
4028.00,0.91
4026.00,0.91
4024.00,0.91
4022.00,0.91
4020.00,0.91
4018.00,0.91
4016.00,0.92
4014.00,0.92
4012.00,0.92
4010.00,0.92
4008.00,0.92
4006.00,0.92
4004.00,0.92
4002.00,0.92
4000.00,0.93
