创建为新数据集,样品 1312 用户 Administrator 日期 星期六, 八月 17 2019
cm-1,%T
10000.00,0.96
9998.00,0.96
9996.00,0.96
9994.00,0.96
9992.00,0.96
9990.00,0.96
9988.00,0.95
9986.00,0.95
9984.00,0.95
9982.00,0.95
9980.00,0.95
9978.00,0.95
9976.00,0.95
9974.00,0.95
9972.00,0.95
9970.00,0.95
9968.00,0.95
9966.00,0.94
9964.00,0.94
9962.00,0.94
9960.00,0.94
9958.00,0.94
9956.00,0.94
9954.00,0.94
9952.00,0.94
9950.00,0.94
9948.00,0.94
9946.00,0.94
9944.00,0.94
9942.00,0.94
9940.00,0.94
9938.00,0.94
9936.00,0.94
9934.00,0.95
9932.00,0.95
9930.00,0.95
9928.00,0.95
9926.00,0.95
9924.00,0.95
9922.00,0.95
9920.00,0.95
9918.00,0.94
9916.00,0.94
9914.00,0.94
9912.00,0.94
9910.00,0.94
9908.00,0.94
9906.00,0.94
9904.00,0.94
9902.00,0.94
9900.00,0.93
9898.00,0.93
9896.00,0.93
9894.00,0.93
9892.00,0.93
9890.00,0.93
9888.00,0.94
9886.00,0.94
9884.00,0.94
9882.00,0.94
9880.00,0.94
9878.00,0.94
9876.00,0.94
9874.00,0.94
9872.00,0.94
9870.00,0.94
9868.00,0.94
9866.00,0.94
9864.00,0.94
9862.00,0.94
9860.00,0.94
9858.00,0.94
9856.00,0.94
9854.00,0.94
9852.00,0.94
9850.00,0.94
9848.00,0.94
9846.00,0.94
9844.00,0.94
9842.00,0.94
9840.00,0.94
9838.00,0.94
9836.00,0.94
9834.00,0.94
9832.00,0.94
9830.00,0.94
9828.00,0.94
9826.00,0.94
9824.00,0.94
9822.00,0.94
9820.00,0.94
9818.00,0.94
9816.00,0.94
9814.00,0.94
9812.00,0.94
9810.00,0.94
9808.00,0.94
9806.00,0.94
9804.00,0.94
9802.00,0.94
9800.00,0.94
9798.00,0.94
9796.00,0.94
9794.00,0.94
9792.00,0.94
9790.00,0.94
9788.00,0.94
9786.00,0.94
9784.00,0.94
9782.00,0.94
9780.00,0.94
9778.00,0.94
9776.00,0.94
9774.00,0.94
9772.00,0.94
9770.00,0.94
9768.00,0.94
9766.00,0.94
9764.00,0.94
9762.00,0.94
9760.00,0.94
9758.00,0.94
9756.00,0.94
9754.00,0.94
9752.00,0.94
9750.00,0.94
9748.00,0.94
9746.00,0.94
9744.00,0.94
9742.00,0.94
9740.00,0.94
9738.00,0.94
9736.00,0.94
9734.00,0.94
9732.00,0.94
9730.00,0.94
9728.00,0.94
9726.00,0.94
9724.00,0.94
9722.00,0.94
9720.00,0.94
9718.00,0.94
9716.00,0.94
9714.00,0.94
9712.00,0.94
9710.00,0.94
9708.00,0.94
9706.00,0.94
9704.00,0.94
9702.00,0.94
9700.00,0.94
9698.00,0.94
9696.00,0.94
9694.00,0.94
9692.00,0.94
9690.00,0.94
9688.00,0.94
9686.00,0.94
9684.00,0.94
9682.00,0.93
9680.00,0.93
9678.00,0.93
9676.00,0.93
9674.00,0.93
9672.00,0.93
9670.00,0.93
9668.00,0.93
9666.00,0.93
9664.00,0.93
9662.00,0.93
9660.00,0.93
9658.00,0.93
9656.00,0.93
9654.00,0.93
9652.00,0.93
9650.00,0.92
9648.00,0.92
9646.00,0.92
9644.00,0.92
9642.00,0.92
9640.00,0.92
9638.00,0.93
9636.00,0.93
9634.00,0.93
9632.00,0.93
9630.00,0.93
9628.00,0.93
9626.00,0.93
9624.00,0.93
9622.00,0.93
9620.00,0.94
9618.00,0.94
9616.00,0.94
9614.00,0.94
9612.00,0.94
9610.00,0.94
9608.00,0.95
9606.00,0.95
9604.00,0.95
9602.00,0.95
9600.00,0.95
9598.00,0.95
9596.00,0.95
9594.00,0.95
9592.00,0.94
9590.00,0.94
9588.00,0.94
9586.00,0.94
9584.00,0.94
9582.00,0.94
9580.00,0.94
9578.00,0.94
9576.00,0.93
9574.00,0.93
9572.00,0.93
9570.00,0.93
9568.00,0.93
9566.00,0.93
9564.00,0.93
9562.00,0.93
9560.00,0.93
9558.00,0.93
9556.00,0.93
9554.00,0.93
9552.00,0.93
9550.00,0.93
9548.00,0.93
9546.00,0.93
9544.00,0.93
9542.00,0.93
9540.00,0.93
9538.00,0.92
9536.00,0.92
9534.00,0.92
9532.00,0.92
9530.00,0.92
9528.00,0.92
9526.00,0.92
9524.00,0.92
9522.00,0.92
9520.00,0.92
9518.00,0.92
9516.00,0.92
9514.00,0.92
9512.00,0.92
9510.00,0.92
9508.00,0.92
9506.00,0.92
9504.00,0.92
9502.00,0.92
9500.00,0.92
9498.00,0.92
9496.00,0.92
9494.00,0.92
9492.00,0.92
9490.00,0.92
9488.00,0.92
9486.00,0.92
9484.00,0.92
9482.00,0.92
9480.00,0.92
9478.00,0.92
9476.00,0.92
9474.00,0.92
9472.00,0.93
9470.00,0.93
9468.00,0.93
9466.00,0.93
9464.00,0.93
9462.00,0.93
9460.00,0.93
9458.00,0.93
9456.00,0.93
9454.00,0.94
9452.00,0.94
9450.00,0.94
9448.00,0.94
9446.00,0.94
9444.00,0.94
9442.00,0.94
9440.00,0.94
9438.00,0.94
9436.00,0.94
9434.00,0.94
9432.00,0.94
9430.00,0.94
9428.00,0.94
9426.00,0.94
9424.00,0.94
9422.00,0.94
9420.00,0.94
9418.00,0.94
9416.00,0.94
9414.00,0.94
9412.00,0.94
9410.00,0.94
9408.00,0.94
9406.00,0.93
9404.00,0.93
9402.00,0.93
9400.00,0.93
9398.00,0.93
9396.00,0.93
9394.00,0.93
9392.00,0.93
9390.00,0.92
9388.00,0.92
9386.00,0.92
9384.00,0.92
9382.00,0.92
9380.00,0.92
9378.00,0.91
9376.00,0.91
9374.00,0.91
9372.00,0.91
9370.00,0.91
9368.00,0.91
9366.00,0.91
9364.00,0.91
9362.00,0.91
9360.00,0.92
9358.00,0.92
9356.00,0.92
9354.00,0.92
9352.00,0.92
9350.00,0.92
9348.00,0.92
9346.00,0.93
9344.00,0.93
9342.00,0.93
9340.00,0.93
9338.00,0.93
9336.00,0.93
9334.00,0.93
9332.00,0.93
9330.00,0.93
9328.00,0.93
9326.00,0.93
9324.00,0.93
9322.00,0.93
9320.00,0.93
9318.00,0.93
9316.00,0.93
9314.00,0.93
9312.00,0.93
9310.00,0.92
9308.00,0.92
9306.00,0.92
9304.00,0.92
9302.00,0.92
9300.00,0.92
9298.00,0.92
9296.00,0.92
9294.00,0.92
9292.00,0.92
9290.00,0.92
9288.00,0.92
9286.00,0.92
9284.00,0.92
9282.00,0.93
9280.00,0.93
9278.00,0.93
9276.00,0.93
9274.00,0.93
9272.00,0.93
9270.00,0.93
9268.00,0.94
9266.00,0.94
9264.00,0.94
9262.00,0.94
9260.00,0.94
9258.00,0.94
9256.00,0.94
9254.00,0.94
9252.00,0.94
9250.00,0.94
9248.00,0.94
9246.00,0.94
9244.00,0.94
9242.00,0.93
9240.00,0.93
9238.00,0.93
9236.00,0.93
9234.00,0.93
9232.00,0.93
9230.00,0.93
9228.00,0.93
9226.00,0.93
9224.00,0.93
9222.00,0.93
9220.00,0.93
9218.00,0.93
9216.00,0.93
9214.00,0.93
9212.00,0.93
9210.00,0.93
9208.00,0.93
9206.00,0.93
9204.00,0.93
9202.00,0.92
9200.00,0.92
9198.00,0.92
9196.00,0.92
9194.00,0.92
9192.00,0.92
9190.00,0.92
9188.00,0.92
9186.00,0.92
9184.00,0.92
9182.00,0.92
9180.00,0.92
9178.00,0.92
9176.00,0.92
9174.00,0.92
9172.00,0.92
9170.00,0.92
9168.00,0.92
9166.00,0.92
9164.00,0.93
9162.00,0.93
9160.00,0.93
9158.00,0.93
9156.00,0.93
9154.00,0.93
9152.00,0.93
9150.00,0.93
9148.00,0.93
9146.00,0.94
9144.00,0.94
9142.00,0.94
9140.00,0.94
9138.00,0.94
9136.00,0.94
9134.00,0.94
9132.00,0.94
9130.00,0.94
9128.00,0.94
9126.00,0.94
9124.00,0.94
9122.00,0.94
9120.00,0.94
9118.00,0.94
9116.00,0.94
9114.00,0.94
9112.00,0.94
9110.00,0.94
9108.00,0.94
9106.00,0.94
9104.00,0.94
9102.00,0.94
9100.00,0.94
9098.00,0.94
9096.00,0.93
9094.00,0.93
9092.00,0.93
9090.00,0.93
9088.00,0.93
9086.00,0.93
9084.00,0.93
9082.00,0.93
9080.00,0.93
9078.00,0.93
9076.00,0.93
9074.00,0.93
9072.00,0.93
9070.00,0.93
9068.00,0.93
9066.00,0.93
9064.00,0.93
9062.00,0.93
9060.00,0.93
9058.00,0.93
9056.00,0.93
9054.00,0.93
9052.00,0.93
9050.00,0.93
9048.00,0.93
9046.00,0.93
9044.00,0.93
9042.00,0.93
9040.00,0.93
9038.00,0.93
9036.00,0.93
9034.00,0.93
9032.00,0.93
9030.00,0.93
9028.00,0.93
9026.00,0.93
9024.00,0.93
9022.00,0.93
9020.00,0.93
9018.00,0.93
9016.00,0.93
9014.00,0.93
9012.00,0.93
9010.00,0.93
9008.00,0.93
9006.00,0.93
9004.00,0.93
9002.00,0.93
9000.00,0.92
8998.00,0.92
8996.00,0.92
8994.00,0.92
8992.00,0.92
8990.00,0.92
8988.00,0.93
8986.00,0.93
8984.00,0.93
8982.00,0.93
8980.00,0.93
8978.00,0.93
8976.00,0.93
8974.00,0.94
8972.00,0.94
8970.00,0.94
8968.00,0.94
8966.00,0.94
8964.00,0.94
8962.00,0.95
8960.00,0.95
8958.00,0.95
8956.00,0.95
8954.00,0.95
8952.00,0.95
8950.00,0.95
8948.00,0.95
8946.00,0.95
8944.00,0.94
8942.00,0.94
8940.00,0.94
8938.00,0.94
8936.00,0.94
8934.00,0.94
8932.00,0.94
8930.00,0.94
8928.00,0.94
8926.00,0.94
8924.00,0.93
8922.00,0.93
8920.00,0.93
8918.00,0.93
8916.00,0.93
8914.00,0.93
8912.00,0.93
8910.00,0.93
8908.00,0.93
8906.00,0.93
8904.00,0.93
8902.00,0.93
8900.00,0.93
8898.00,0.93
8896.00,0.93
8894.00,0.93
8892.00,0.93
8890.00,0.93
8888.00,0.93
8886.00,0.93
8884.00,0.93
8882.00,0.93
8880.00,0.93
8878.00,0.93
8876.00,0.93
8874.00,0.93
8872.00,0.93
8870.00,0.93
8868.00,0.93
8866.00,0.92
8864.00,0.92
8862.00,0.92
8860.00,0.92
8858.00,0.92
8856.00,0.92
8854.00,0.92
8852.00,0.93
8850.00,0.93
8848.00,0.93
8846.00,0.93
8844.00,0.93
8842.00,0.93
8840.00,0.93
8838.00,0.93
8836.00,0.93
8834.00,0.94
8832.00,0.94
8830.00,0.94
8828.00,0.94
8826.00,0.94
8824.00,0.94
8822.00,0.94
8820.00,0.94
8818.00,0.94
8816.00,0.94
8814.00,0.94
8812.00,0.94
8810.00,0.94
8808.00,0.94
8806.00,0.94
8804.00,0.93
8802.00,0.93
8800.00,0.93
8798.00,0.93
8796.00,0.93
8794.00,0.93
8792.00,0.93
8790.00,0.92
8788.00,0.92
8786.00,0.92
8784.00,0.92
8782.00,0.92
8780.00,0.92
8778.00,0.92
8776.00,0.92
8774.00,0.92
8772.00,0.91
8770.00,0.91
8768.00,0.91
8766.00,0.91
8764.00,0.91
8762.00,0.91
8760.00,0.91
8758.00,0.91
8756.00,0.91
8754.00,0.91
8752.00,0.92
8750.00,0.92
8748.00,0.92
8746.00,0.92
8744.00,0.92
8742.00,0.92
8740.00,0.92
8738.00,0.92
8736.00,0.92
8734.00,0.92
8732.00,0.92
8730.00,0.92
8728.00,0.93
8726.00,0.93
8724.00,0.93
8722.00,0.93
8720.00,0.93
8718.00,0.93
8716.00,0.93
8714.00,0.93
8712.00,0.93
8710.00,0.93
8708.00,0.93
8706.00,0.93
8704.00,0.93
8702.00,0.93
8700.00,0.93
8698.00,0.93
8696.00,0.93
8694.00,0.93
8692.00,0.93
8690.00,0.93
8688.00,0.93
8686.00,0.93
8684.00,0.93
8682.00,0.92
8680.00,0.92
8678.00,0.92
8676.00,0.92
8674.00,0.92
8672.00,0.92
8670.00,0.92
8668.00,0.92
8666.00,0.92
8664.00,0.92
8662.00,0.92
8660.00,0.91
8658.00,0.91
8656.00,0.92
8654.00,0.92
8652.00,0.92
8650.00,0.92
8648.00,0.92
8646.00,0.92
8644.00,0.92
8642.00,0.92
8640.00,0.92
8638.00,0.92
8636.00,0.92
8634.00,0.92
8632.00,0.92
8630.00,0.92
8628.00,0.93
8626.00,0.93
8624.00,0.93
8622.00,0.93
8620.00,0.93
8618.00,0.93
8616.00,0.93
8614.00,0.93
8612.00,0.93
8610.00,0.93
8608.00,0.93
8606.00,0.93
8604.00,0.93
8602.00,0.93
8600.00,0.93
8598.00,0.93
8596.00,0.93
8594.00,0.93
8592.00,0.93
8590.00,0.93
8588.00,0.93
8586.00,0.93
8584.00,0.93
8582.00,0.93
8580.00,0.93
8578.00,0.93
8576.00,0.93
8574.00,0.93
8572.00,0.93
8570.00,0.93
8568.00,0.93
8566.00,0.93
8564.00,0.93
8562.00,0.93
8560.00,0.93
8558.00,0.93
8556.00,0.93
8554.00,0.92
8552.00,0.92
8550.00,0.92
8548.00,0.92
8546.00,0.92
8544.00,0.92
8542.00,0.92
8540.00,0.92
8538.00,0.92
8536.00,0.92
8534.00,0.92
8532.00,0.92
8530.00,0.92
8528.00,0.92
8526.00,0.92
8524.00,0.92
8522.00,0.92
8520.00,0.92
8518.00,0.92
8516.00,0.92
8514.00,0.92
8512.00,0.92
8510.00,0.92
8508.00,0.92
8506.00,0.92
8504.00,0.92
8502.00,0.92
8500.00,0.92
8498.00,0.92
8496.00,0.92
8494.00,0.92
8492.00,0.92
8490.00,0.92
8488.00,0.92
8486.00,0.92
8484.00,0.93
8482.00,0.93
8480.00,0.93
8478.00,0.93
8476.00,0.93
8474.00,0.93
8472.00,0.93
8470.00,0.93
8468.00,0.93
8466.00,0.93
8464.00,0.93
8462.00,0.93
8460.00,0.93
8458.00,0.93
8456.00,0.93
8454.00,0.93
8452.00,0.93
8450.00,0.93
8448.00,0.93
8446.00,0.93
8444.00,0.93
8442.00,0.93
8440.00,0.93
8438.00,0.93
8436.00,0.93
8434.00,0.93
8432.00,0.93
8430.00,0.93
8428.00,0.93
8426.00,0.93
8424.00,0.93
8422.00,0.93
8420.00,0.93
8418.00,0.93
8416.00,0.93
8414.00,0.93
8412.00,0.93
8410.00,0.93
8408.00,0.94
8406.00,0.94
8404.00,0.93
8402.00,0.93
8400.00,0.93
8398.00,0.93
8396.00,0.93
8394.00,0.93
8392.00,0.93
8390.00,0.93
8388.00,0.93
8386.00,0.93
8384.00,0.93
8382.00,0.93
8380.00,0.93
8378.00,0.93
8376.00,0.93
8374.00,0.93
8372.00,0.93
8370.00,0.93
8368.00,0.93
8366.00,0.93
8364.00,0.93
8362.00,0.93
8360.00,0.93
8358.00,0.94
8356.00,0.94
8354.00,0.94
8352.00,0.93
8350.00,0.93
8348.00,0.93
8346.00,0.93
8344.00,0.93
8342.00,0.93
8340.00,0.93
8338.00,0.93
8336.00,0.93
8334.00,0.93
8332.00,0.93
8330.00,0.93
8328.00,0.93
8326.00,0.93
8324.00,0.93
8322.00,0.93
8320.00,0.93
8318.00,0.93
8316.00,0.93
8314.00,0.93
8312.00,0.93
8310.00,0.93
8308.00,0.93
8306.00,0.93
8304.00,0.93
8302.00,0.93
8300.00,0.93
8298.00,0.93
8296.00,0.93
8294.00,0.93
8292.00,0.93
8290.00,0.93
8288.00,0.93
8286.00,0.93
8284.00,0.93
8282.00,0.93
8280.00,0.93
8278.00,0.93
8276.00,0.93
8274.00,0.93
8272.00,0.93
8270.00,0.93
8268.00,0.93
8266.00,0.93
8264.00,0.93
8262.00,0.93
8260.00,0.93
8258.00,0.93
8256.00,0.93
8254.00,0.93
8252.00,0.93
8250.00,0.93
8248.00,0.93
8246.00,0.93
8244.00,0.93
8242.00,0.93
8240.00,0.93
8238.00,0.93
8236.00,0.93
8234.00,0.93
8232.00,0.93
8230.00,0.93
8228.00,0.93
8226.00,0.93
8224.00,0.93
8222.00,0.93
8220.00,0.93
8218.00,0.93
8216.00,0.93
8214.00,0.93
8212.00,0.93
8210.00,0.93
8208.00,0.93
8206.00,0.93
8204.00,0.93
8202.00,0.93
8200.00,0.93
8198.00,0.93
8196.00,0.93
8194.00,0.93
8192.00,0.93
8190.00,0.94
8188.00,0.94
8186.00,0.94
8184.00,0.94
8182.00,0.94
8180.00,0.94
8178.00,0.94
8176.00,0.94
8174.00,0.94
8172.00,0.94
8170.00,0.94
8168.00,0.94
8166.00,0.94
8164.00,0.93
8162.00,0.93
8160.00,0.93
8158.00,0.93
8156.00,0.93
8154.00,0.93
8152.00,0.93
8150.00,0.93
8148.00,0.93
8146.00,0.93
8144.00,0.94
8142.00,0.94
8140.00,0.94
8138.00,0.94
8136.00,0.94
8134.00,0.94
8132.00,0.94
8130.00,0.94
8128.00,0.94
8126.00,0.94
8124.00,0.94
8122.00,0.94
8120.00,0.95
8118.00,0.95
8116.00,0.95
8114.00,0.95
8112.00,0.95
8110.00,0.95
8108.00,0.95
8106.00,0.95
8104.00,0.95
8102.00,0.95
8100.00,0.95
8098.00,0.95
8096.00,0.95
8094.00,0.95
8092.00,0.95
8090.00,0.95
8088.00,0.94
8086.00,0.94
8084.00,0.94
8082.00,0.94
8080.00,0.94
8078.00,0.94
8076.00,0.94
8074.00,0.94
8072.00,0.94
8070.00,0.94
8068.00,0.94
8066.00,0.94
8064.00,0.94
8062.00,0.94
8060.00,0.94
8058.00,0.94
8056.00,0.95
8054.00,0.95
8052.00,0.95
8050.00,0.95
8048.00,0.95
8046.00,0.95
8044.00,0.95
8042.00,0.95
8040.00,0.95
8038.00,0.95
8036.00,0.95
8034.00,0.95
8032.00,0.95
8030.00,0.94
8028.00,0.94
8026.00,0.94
8024.00,0.94
8022.00,0.94
8020.00,0.94
8018.00,0.94
8016.00,0.94
8014.00,0.94
8012.00,0.94
8010.00,0.94
8008.00,0.94
8006.00,0.94
8004.00,0.94
8002.00,0.94
8000.00,0.94
7998.00,0.94
7996.00,0.94
7994.00,0.94
7992.00,0.94
7990.00,0.94
7988.00,0.94
7986.00,0.94
7984.00,0.94
7982.00,0.94
7980.00,0.94
7978.00,0.94
7976.00,0.94
7974.00,0.94
7972.00,0.95
7970.00,0.95
7968.00,0.95
7966.00,0.95
7964.00,0.95
7962.00,0.95
7960.00,0.95
7958.00,0.95
7956.00,0.95
7954.00,0.95
7952.00,0.95
7950.00,0.95
7948.00,0.95
7946.00,0.95
7944.00,0.95
7942.00,0.95
7940.00,0.95
7938.00,0.95
7936.00,0.95
7934.00,0.95
7932.00,0.95
7930.00,0.95
7928.00,0.95
7926.00,0.95
7924.00,0.95
7922.00,0.95
7920.00,0.95
7918.00,0.95
7916.00,0.95
7914.00,0.95
7912.00,0.95
7910.00,0.95
7908.00,0.95
7906.00,0.95
7904.00,0.95
7902.00,0.95
7900.00,0.95
7898.00,0.95
7896.00,0.95
7894.00,0.95
7892.00,0.95
7890.00,0.95
7888.00,0.95
7886.00,0.95
7884.00,0.95
7882.00,0.95
7880.00,0.95
7878.00,0.95
7876.00,0.95
7874.00,0.95
7872.00,0.95
7870.00,0.95
7868.00,0.95
7866.00,0.95
7864.00,0.95
7862.00,0.95
7860.00,0.95
7858.00,0.95
7856.00,0.95
7854.00,0.95
7852.00,0.94
7850.00,0.94
7848.00,0.94
7846.00,0.94
7844.00,0.94
7842.00,0.94
7840.00,0.94
7838.00,0.94
7836.00,0.94
7834.00,0.94
7832.00,0.94
7830.00,0.94
7828.00,0.94
7826.00,0.94
7824.00,0.94
7822.00,0.95
7820.00,0.95
7818.00,0.95
7816.00,0.95
7814.00,0.95
7812.00,0.95
7810.00,0.95
7808.00,0.95
7806.00,0.95
7804.00,0.95
7802.00,0.95
7800.00,0.95
7798.00,0.95
7796.00,0.95
7794.00,0.95
7792.00,0.95
7790.00,0.96
7788.00,0.96
7786.00,0.96
7784.00,0.96
7782.00,0.96
7780.00,0.96
7778.00,0.96
7776.00,0.96
7774.00,0.96
7772.00,0.96
7770.00,0.96
7768.00,0.96
7766.00,0.96
7764.00,0.96
7762.00,0.96
7760.00,0.95
7758.00,0.95
7756.00,0.95
7754.00,0.95
7752.00,0.95
7750.00,0.95
7748.00,0.95
7746.00,0.95
7744.00,0.95
7742.00,0.95
7740.00,0.95
7738.00,0.95
7736.00,0.95
7734.00,0.95
7732.00,0.95
7730.00,0.95
7728.00,0.95
7726.00,0.95
7724.00,0.95
7722.00,0.95
7720.00,0.95
7718.00,0.95
7716.00,0.95
7714.00,0.95
7712.00,0.95
7710.00,0.95
7708.00,0.95
7706.00,0.95
7704.00,0.95
7702.00,0.95
7700.00,0.95
7698.00,0.95
7696.00,0.95
7694.00,0.95
7692.00,0.95
7690.00,0.95
7688.00,0.95
7686.00,0.95
7684.00,0.95
7682.00,0.95
7680.00,0.95
7678.00,0.95
7676.00,0.95
7674.00,0.95
7672.00,0.95
7670.00,0.95
7668.00,0.95
7666.00,0.95
7664.00,0.95
7662.00,0.95
7660.00,0.95
7658.00,0.95
7656.00,0.95
7654.00,0.95
7652.00,0.95
7650.00,0.95
7648.00,0.95
7646.00,0.95
7644.00,0.95
7642.00,0.95
7640.00,0.95
7638.00,0.95
7636.00,0.95
7634.00,0.95
7632.00,0.95
7630.00,0.95
7628.00,0.95
7626.00,0.95
7624.00,0.95
7622.00,0.96
7620.00,0.96
7618.00,0.96
7616.00,0.96
7614.00,0.96
7612.00,0.96
7610.00,0.96
7608.00,0.96
7606.00,0.96
7604.00,0.96
7602.00,0.96
7600.00,0.96
7598.00,0.96
7596.00,0.96
7594.00,0.96
7592.00,0.96
7590.00,0.96
7588.00,0.96
7586.00,0.96
7584.00,0.96
7582.00,0.96
7580.00,0.96
7578.00,0.96
7576.00,0.96
7574.00,0.96
7572.00,0.96
7570.00,0.96
7568.00,0.96
7566.00,0.96
7564.00,0.96
7562.00,0.96
7560.00,0.96
7558.00,0.96
7556.00,0.96
7554.00,0.96
7552.00,0.96
7550.00,0.96
7548.00,0.96
7546.00,0.96
7544.00,0.96
7542.00,0.96
7540.00,0.96
7538.00,0.96
7536.00,0.96
7534.00,0.96
7532.00,0.96
7530.00,0.96
7528.00,0.96
7526.00,0.96
7524.00,0.96
7522.00,0.96
7520.00,0.96
7518.00,0.96
7516.00,0.96
7514.00,0.95
7512.00,0.95
7510.00,0.95
7508.00,0.95
7506.00,0.95
7504.00,0.95
7502.00,0.95
7500.00,0.95
7498.00,0.95
7496.00,0.95
7494.00,0.95
7492.00,0.95
7490.00,0.95
7488.00,0.95
7486.00,0.95
7484.00,0.95
7482.00,0.95
7480.00,0.95
7478.00,0.95
7476.00,0.95
7474.00,0.95
7472.00,0.95
7470.00,0.95
7468.00,0.95
7466.00,0.95
7464.00,0.95
7462.00,0.95
7460.00,0.95
7458.00,0.95
7456.00,0.95
7454.00,0.95
7452.00,0.95
7450.00,0.95
7448.00,0.95
7446.00,0.95
7444.00,0.95
7442.00,0.95
7440.00,0.95
7438.00,0.95
7436.00,0.95
7434.00,0.95
7432.00,0.95
7430.00,0.94
7428.00,0.94
7426.00,0.94
7424.00,0.94
7422.00,0.94
7420.00,0.94
7418.00,0.94
7416.00,0.94
7414.00,0.94
7412.00,0.94
7410.00,0.94
7408.00,0.94
7406.00,0.94
7404.00,0.94
7402.00,0.94
7400.00,0.94
7398.00,0.93
7396.00,0.93
7394.00,0.93
7392.00,0.93
7390.00,0.93
7388.00,0.93
7386.00,0.93
7384.00,0.93
7382.00,0.93
7380.00,0.93
7378.00,0.93
7376.00,0.93
7374.00,0.93
7372.00,0.93
7370.00,0.93
7368.00,0.93
7366.00,0.93
7364.00,0.93
7362.00,0.92
7360.00,0.92
7358.00,0.92
7356.00,0.92
7354.00,0.92
7352.00,0.92
7350.00,0.92
7348.00,0.92
7346.00,0.92
7344.00,0.92
7342.00,0.92
7340.00,0.92
7338.00,0.92
7336.00,0.92
7334.00,0.92
7332.00,0.92
7330.00,0.92
7328.00,0.92
7326.00,0.92
7324.00,0.92
7322.00,0.92
7320.00,0.92
7318.00,0.92
7316.00,0.92
7314.00,0.92
7312.00,0.92
7310.00,0.92
7308.00,0.92
7306.00,0.92
7304.00,0.92
7302.00,0.92
7300.00,0.92
7298.00,0.92
7296.00,0.92
7294.00,0.92
7292.00,0.92
7290.00,0.92
7288.00,0.92
7286.00,0.92
7284.00,0.92
7282.00,0.92
7280.00,0.92
7278.00,0.92
7276.00,0.92
7274.00,0.92
7272.00,0.92
7270.00,0.92
7268.00,0.92
7266.00,0.92
7264.00,0.92
7262.00,0.92
7260.00,0.91
7258.00,0.91
7256.00,0.91
7254.00,0.91
7252.00,0.91
7250.00,0.91
7248.00,0.91
7246.00,0.90
7244.00,0.90
7242.00,0.90
7240.00,0.90
7238.00,0.90
7236.00,0.89
7234.00,0.89
7232.00,0.89
7230.00,0.89
7228.00,0.89
7226.00,0.89
7224.00,0.89
7222.00,0.89
7220.00,0.88
7218.00,0.88
7216.00,0.88
7214.00,0.88
7212.00,0.88
7210.00,0.88
7208.00,0.88
7206.00,0.88
7204.00,0.88
7202.00,0.88
7200.00,0.88
7198.00,0.87
7196.00,0.87
7194.00,0.87
7192.00,0.87
7190.00,0.87
7188.00,0.87
7186.00,0.87
7184.00,0.87
7182.00,0.86
7180.00,0.86
7178.00,0.86
7176.00,0.86
7174.00,0.86
7172.00,0.86
7170.00,0.85
7168.00,0.85
7166.00,0.85
7164.00,0.85
7162.00,0.85
7160.00,0.84
7158.00,0.84
7156.00,0.84
7154.00,0.84
7152.00,0.84
7150.00,0.83
7148.00,0.83
7146.00,0.83
7144.00,0.83
7142.00,0.83
7140.00,0.83
7138.00,0.82
7136.00,0.82
7134.00,0.82
7132.00,0.82
7130.00,0.82
7128.00,0.82
7126.00,0.82
7124.00,0.82
7122.00,0.81
7120.00,0.81
7118.00,0.81
7116.00,0.81
7114.00,0.81
7112.00,0.81
7110.00,0.81
7108.00,0.81
7106.00,0.81
7104.00,0.80
7102.00,0.80
7100.00,0.80
7098.00,0.80
7096.00,0.80
7094.00,0.80
7092.00,0.80
7090.00,0.80
7088.00,0.80
7086.00,0.79
7084.00,0.79
7082.00,0.79
7080.00,0.79
7078.00,0.79
7076.00,0.79
7074.00,0.79
7072.00,0.79
7070.00,0.79
7068.00,0.79
7066.00,0.78
7064.00,0.78
7062.00,0.78
7060.00,0.78
7058.00,0.78
7056.00,0.78
7054.00,0.78
7052.00,0.78
7050.00,0.78
7048.00,0.77
7046.00,0.77
7044.00,0.77
7042.00,0.77
7040.00,0.77
7038.00,0.77
7036.00,0.77
7034.00,0.77
7032.00,0.77
7030.00,0.77
7028.00,0.77
7026.00,0.76
7024.00,0.76
7022.00,0.76
7020.00,0.76
7018.00,0.76
7016.00,0.76
7014.00,0.76
7012.00,0.76
7010.00,0.76
7008.00,0.76
7006.00,0.76
7004.00,0.76
7002.00,0.76
7000.00,0.76
6998.00,0.76
6996.00,0.75
6994.00,0.75
6992.00,0.75
6990.00,0.75
6988.00,0.75
6986.00,0.75
6984.00,0.75
6982.00,0.75
6980.00,0.75
6978.00,0.75
6976.00,0.75
6974.00,0.75
6972.00,0.75
6970.00,0.75
6968.00,0.75
6966.00,0.75
6964.00,0.75
6962.00,0.75
6960.00,0.75
6958.00,0.75
6956.00,0.75
6954.00,0.75
6952.00,0.75
6950.00,0.75
6948.00,0.75
6946.00,0.75
6944.00,0.75
6942.00,0.75
6940.00,0.75
6938.00,0.75
6936.00,0.74
6934.00,0.74
6932.00,0.74
6930.00,0.74
6928.00,0.74
6926.00,0.74
6924.00,0.74
6922.00,0.74
6920.00,0.74
6918.00,0.74
6916.00,0.74
6914.00,0.74
6912.00,0.74
6910.00,0.74
6908.00,0.74
6906.00,0.74
6904.00,0.74
6902.00,0.74
6900.00,0.74
6898.00,0.74
6896.00,0.74
6894.00,0.74
6892.00,0.74
6890.00,0.74
6888.00,0.74
6886.00,0.74
6884.00,0.74
6882.00,0.74
6880.00,0.74
6878.00,0.74
6876.00,0.74
6874.00,0.74
6872.00,0.74
6870.00,0.74
6868.00,0.74
6866.00,0.74
6864.00,0.74
6862.00,0.74
6860.00,0.74
6858.00,0.74
6856.00,0.74
6854.00,0.74
6852.00,0.74
6850.00,0.74
6848.00,0.74
6846.00,0.74
6844.00,0.74
6842.00,0.74
6840.00,0.74
6838.00,0.75
6836.00,0.75
6834.00,0.75
6832.00,0.75
6830.00,0.75
6828.00,0.75
6826.00,0.75
6824.00,0.75
6822.00,0.75
6820.00,0.75
6818.00,0.75
6816.00,0.75
6814.00,0.75
6812.00,0.75
6810.00,0.75
6808.00,0.75
6806.00,0.75
6804.00,0.75
6802.00,0.75
6800.00,0.75
6798.00,0.75
6796.00,0.76
6794.00,0.76
6792.00,0.76
6790.00,0.76
6788.00,0.76
6786.00,0.76
6784.00,0.76
6782.00,0.76
6780.00,0.76
6778.00,0.76
6776.00,0.76
6774.00,0.76
6772.00,0.77
6770.00,0.77
6768.00,0.77
6766.00,0.77
6764.00,0.77
6762.00,0.77
6760.00,0.77
6758.00,0.77
6756.00,0.77
6754.00,0.77
6752.00,0.77
6750.00,0.77
6748.00,0.77
6746.00,0.77
6744.00,0.77
6742.00,0.77
6740.00,0.77
6738.00,0.77
6736.00,0.77
6734.00,0.78
6732.00,0.78
6730.00,0.78
6728.00,0.78
6726.00,0.78
6724.00,0.78
6722.00,0.78
6720.00,0.78
6718.00,0.78
6716.00,0.78
6714.00,0.78
6712.00,0.78
6710.00,0.79
6708.00,0.79
6706.00,0.79
6704.00,0.79
6702.00,0.79
6700.00,0.79
6698.00,0.79
6696.00,0.79
6694.00,0.79
6692.00,0.79
6690.00,0.79
6688.00,0.79
6686.00,0.79
6684.00,0.80
6682.00,0.80
6680.00,0.80
6678.00,0.80
6676.00,0.80
6674.00,0.80
6672.00,0.80
6670.00,0.80
6668.00,0.80
6666.00,0.80
6664.00,0.80
6662.00,0.80
6660.00,0.81
6658.00,0.81
6656.00,0.81
6654.00,0.81
6652.00,0.81
6650.00,0.81
6648.00,0.81
6646.00,0.81
6644.00,0.81
6642.00,0.81
6640.00,0.81
6638.00,0.82
6636.00,0.82
6634.00,0.82
6632.00,0.82
6630.00,0.82
6628.00,0.82
6626.00,0.82
6624.00,0.82
6622.00,0.82
6620.00,0.82
6618.00,0.82
6616.00,0.82
6614.00,0.82
6612.00,0.83
6610.00,0.83
6608.00,0.83
6606.00,0.83
6604.00,0.83
6602.00,0.83
6600.00,0.83
6598.00,0.83
6596.00,0.83
6594.00,0.83
6592.00,0.83
6590.00,0.84
6588.00,0.84
6586.00,0.84
6584.00,0.84
6582.00,0.84
6580.00,0.84
6578.00,0.84
6576.00,0.84
6574.00,0.84
6572.00,0.84
6570.00,0.84
6568.00,0.84
6566.00,0.84
6564.00,0.85
6562.00,0.85
6560.00,0.85
6558.00,0.85
6556.00,0.85
6554.00,0.85
6552.00,0.85
6550.00,0.85
6548.00,0.85
6546.00,0.85
6544.00,0.85
6542.00,0.85
6540.00,0.85
6538.00,0.86
6536.00,0.86
6534.00,0.86
6532.00,0.86
6530.00,0.86
6528.00,0.86
6526.00,0.86
6524.00,0.86
6522.00,0.86
6520.00,0.86
6518.00,0.86
6516.00,0.86
6514.00,0.86
6512.00,0.86
6510.00,0.86
6508.00,0.86
6506.00,0.86
6504.00,0.86
6502.00,0.86
6500.00,0.86
6498.00,0.86
6496.00,0.86
6494.00,0.87
6492.00,0.87
6490.00,0.87
6488.00,0.87
6486.00,0.87
6484.00,0.87
6482.00,0.87
6480.00,0.87
6478.00,0.87
6476.00,0.87
6474.00,0.87
6472.00,0.87
6470.00,0.87
6468.00,0.87
6466.00,0.87
6464.00,0.88
6462.00,0.88
6460.00,0.88
6458.00,0.88
6456.00,0.88
6454.00,0.88
6452.00,0.88
6450.00,0.88
6448.00,0.88
6446.00,0.88
6444.00,0.88
6442.00,0.88
6440.00,0.88
6438.00,0.88
6436.00,0.88
6434.00,0.88
6432.00,0.88
6430.00,0.88
6428.00,0.88
6426.00,0.88
6424.00,0.88
6422.00,0.88
6420.00,0.88
6418.00,0.88
6416.00,0.88
6414.00,0.88
6412.00,0.88
6410.00,0.88
6408.00,0.88
6406.00,0.89
6404.00,0.89
6402.00,0.89
6400.00,0.89
6398.00,0.89
6396.00,0.89
6394.00,0.89
6392.00,0.89
6390.00,0.89
6388.00,0.89
6386.00,0.89
6384.00,0.89
6382.00,0.89
6380.00,0.90
6378.00,0.90
6376.00,0.90
6374.00,0.90
6372.00,0.90
6370.00,0.90
6368.00,0.90
6366.00,0.90
6364.00,0.90
6362.00,0.90
6360.00,0.90
6358.00,0.90
6356.00,0.90
6354.00,0.90
6352.00,0.90
6350.00,0.90
6348.00,0.90
6346.00,0.90
6344.00,0.90
6342.00,0.90
6340.00,0.90
6338.00,0.90
6336.00,0.90
6334.00,0.90
6332.00,0.90
6330.00,0.90
6328.00,0.90
6326.00,0.90
6324.00,0.90
6322.00,0.90
6320.00,0.90
6318.00,0.91
6316.00,0.91
6314.00,0.91
6312.00,0.91
6310.00,0.91
6308.00,0.91
6306.00,0.91
6304.00,0.91
6302.00,0.91
6300.00,0.91
6298.00,0.91
6296.00,0.91
6294.00,0.91
6292.00,0.91
6290.00,0.91
6288.00,0.91
6286.00,0.91
6284.00,0.91
6282.00,0.91
6280.00,0.91
6278.00,0.92
6276.00,0.92
6274.00,0.92
6272.00,0.92
6270.00,0.92
6268.00,0.92
6266.00,0.92
6264.00,0.92
6262.00,0.92
6260.00,0.92
6258.00,0.92
6256.00,0.92
6254.00,0.92
6252.00,0.92
6250.00,0.92
6248.00,0.92
6246.00,0.92
6244.00,0.92
6242.00,0.92
6240.00,0.92
6238.00,0.93
6236.00,0.93
6234.00,0.93
6232.00,0.93
6230.00,0.93
6228.00,0.93
6226.00,0.93
6224.00,0.93
6222.00,0.93
6220.00,0.93
6218.00,0.93
6216.00,0.93
6214.00,0.93
6212.00,0.93
6210.00,0.93
6208.00,0.93
6206.00,0.93
6204.00,0.93
6202.00,0.93
6200.00,0.93
6198.00,0.93
6196.00,0.93
6194.00,0.93
6192.00,0.93
6190.00,0.93
6188.00,0.93
6186.00,0.93
6184.00,0.93
6182.00,0.93
6180.00,0.93
6178.00,0.94
6176.00,0.94
6174.00,0.94
6172.00,0.94
6170.00,0.94
6168.00,0.94
6166.00,0.94
6164.00,0.94
6162.00,0.94
6160.00,0.94
6158.00,0.94
6156.00,0.94
6154.00,0.94
6152.00,0.94
6150.00,0.94
6148.00,0.94
6146.00,0.94
6144.00,0.94
6142.00,0.94
6140.00,0.94
6138.00,0.94
6136.00,0.94
6134.00,0.94
6132.00,0.94
6130.00,0.94
6128.00,0.94
6126.00,0.94
6124.00,0.94
6122.00,0.94
6120.00,0.95
6118.00,0.95
6116.00,0.95
6114.00,0.95
6112.00,0.95
6110.00,0.95
6108.00,0.95
6106.00,0.95
6104.00,0.95
6102.00,0.95
6100.00,0.95
6098.00,0.95
6096.00,0.95
6094.00,0.95
6092.00,0.95
6090.00,0.95
6088.00,0.95
6086.00,0.95
6084.00,0.95
6082.00,0.95
6080.00,0.95
6078.00,0.95
6076.00,0.95
6074.00,0.95
6072.00,0.95
6070.00,0.95
6068.00,0.95
6066.00,0.95
6064.00,0.95
6062.00,0.95
6060.00,0.95
6058.00,0.96
6056.00,0.96
6054.00,0.96
6052.00,0.96
6050.00,0.96
6048.00,0.96
6046.00,0.96
6044.00,0.96
6042.00,0.96
6040.00,0.96
6038.00,0.96
6036.00,0.96
6034.00,0.96
6032.00,0.96
6030.00,0.96
6028.00,0.96
6026.00,0.96
6024.00,0.96
6022.00,0.96
6020.00,0.96
6018.00,0.96
6016.00,0.96
6014.00,0.96
6012.00,0.96
6010.00,0.96
6008.00,0.96
6006.00,0.96
6004.00,0.96
6002.00,0.96
6000.00,0.96
5998.00,0.96
5996.00,0.96
5994.00,0.96
5992.00,0.96
5990.00,0.95
5988.00,0.95
5986.00,0.95
5984.00,0.95
5982.00,0.95
5980.00,0.95
5978.00,0.95
5976.00,0.95
5974.00,0.95
5972.00,0.95
5970.00,0.95
5968.00,0.95
5966.00,0.95
5964.00,0.95
5962.00,0.95
5960.00,0.95
5958.00,0.95
5956.00,0.95
5954.00,0.95
5952.00,0.95
5950.00,0.95
5948.00,0.95
5946.00,0.95
5944.00,0.95
5942.00,0.95
5940.00,0.95
5938.00,0.95
5936.00,0.95
5934.00,0.94
5932.00,0.94
5930.00,0.94
5928.00,0.94
5926.00,0.94
5924.00,0.94
5922.00,0.94
5920.00,0.94
5918.00,0.94
5916.00,0.94
5914.00,0.94
5912.00,0.94
5910.00,0.94
5908.00,0.94
5906.00,0.94
5904.00,0.94
5902.00,0.94
5900.00,0.94
5898.00,0.94
5896.00,0.94
5894.00,0.94
5892.00,0.94
5890.00,0.94
5888.00,0.94
5886.00,0.94
5884.00,0.94
5882.00,0.94
5880.00,0.95
5878.00,0.95
5876.00,0.95
5874.00,0.95
5872.00,0.95
5870.00,0.95
5868.00,0.95
5866.00,0.95
5864.00,0.95
5862.00,0.95
5860.00,0.95
5858.00,0.95
5856.00,0.95
5854.00,0.95
5852.00,0.95
5850.00,0.95
5848.00,0.95
5846.00,0.95
5844.00,0.95
5842.00,0.95
5840.00,0.95
5838.00,0.95
5836.00,0.95
5834.00,0.95
5832.00,0.95
5830.00,0.95
5828.00,0.95
5826.00,0.95
5824.00,0.95
5822.00,0.95
5820.00,0.95
5818.00,0.95
5816.00,0.95
5814.00,0.95
5812.00,0.95
5810.00,0.95
5808.00,0.95
5806.00,0.95
5804.00,0.95
5802.00,0.95
5800.00,0.95
5798.00,0.95
5796.00,0.95
5794.00,0.95
5792.00,0.95
5790.00,0.95
5788.00,0.95
5786.00,0.95
5784.00,0.95
5782.00,0.95
5780.00,0.95
5778.00,0.95
5776.00,0.95
5774.00,0.95
5772.00,0.95
5770.00,0.95
5768.00,0.95
5766.00,0.95
5764.00,0.95
5762.00,0.95
5760.00,0.95
5758.00,0.95
5756.00,0.95
5754.00,0.95
5752.00,0.95
5750.00,0.95
5748.00,0.95
5746.00,0.95
5744.00,0.95
5742.00,0.95
5740.00,0.95
5738.00,0.95
5736.00,0.95
5734.00,0.95
5732.00,0.95
5730.00,0.95
5728.00,0.95
5726.00,0.95
5724.00,0.95
5722.00,0.95
5720.00,0.95
5718.00,0.95
5716.00,0.95
5714.00,0.95
5712.00,0.95
5710.00,0.95
5708.00,0.95
5706.00,0.95
5704.00,0.95
5702.00,0.95
5700.00,0.95
5698.00,0.95
5696.00,0.95
5694.00,0.95
5692.00,0.95
5690.00,0.95
5688.00,0.95
5686.00,0.95
5684.00,0.95
5682.00,0.95
5680.00,0.95
5678.00,0.95
5676.00,0.95
5674.00,0.95
5672.00,0.95
5670.00,0.95
5668.00,0.95
5666.00,0.95
5664.00,0.95
5662.00,0.95
5660.00,0.95
5658.00,0.95
5656.00,0.95
5654.00,0.95
5652.00,0.95
5650.00,0.95
5648.00,0.95
5646.00,0.95
5644.00,0.95
5642.00,0.95
5640.00,0.95
5638.00,0.95
5636.00,0.95
5634.00,0.95
5632.00,0.95
5630.00,0.95
5628.00,0.95
5626.00,0.95
5624.00,0.95
5622.00,0.95
5620.00,0.95
5618.00,0.95
5616.00,0.95
5614.00,0.95
5612.00,0.95
5610.00,0.95
5608.00,0.95
5606.00,0.95
5604.00,0.95
5602.00,0.95
5600.00,0.95
5598.00,0.95
5596.00,0.95
5594.00,0.95
5592.00,0.95
5590.00,0.96
5588.00,0.96
5586.00,0.96
5584.00,0.96
5582.00,0.96
5580.00,0.96
5578.00,0.96
5576.00,0.96
5574.00,0.96
5572.00,0.96
5570.00,0.96
5568.00,0.96
5566.00,0.96
5564.00,0.96
5562.00,0.96
5560.00,0.96
5558.00,0.96
5556.00,0.96
5554.00,0.96
5552.00,0.96
5550.00,0.96
5548.00,0.96
5546.00,0.96
5544.00,0.96
5542.00,0.96
5540.00,0.96
5538.00,0.96
5536.00,0.96
5534.00,0.96
5532.00,0.96
5530.00,0.96
5528.00,0.96
5526.00,0.96
5524.00,0.96
5522.00,0.96
5520.00,0.96
5518.00,0.96
5516.00,0.96
5514.00,0.96
5512.00,0.96
5510.00,0.96
5508.00,0.96
5506.00,0.96
5504.00,0.96
5502.00,0.96
5500.00,0.96
5498.00,0.96
5496.00,0.96
5494.00,0.96
5492.00,0.96
5490.00,0.96
5488.00,0.96
5486.00,0.96
5484.00,0.96
5482.00,0.96
5480.00,0.96
5478.00,0.96
5476.00,0.96
5474.00,0.96
5472.00,0.96
5470.00,0.96
5468.00,0.96
5466.00,0.96
5464.00,0.96
5462.00,0.96
5460.00,0.96
5458.00,0.96
5456.00,0.96
5454.00,0.96
5452.00,0.96
5450.00,0.96
5448.00,0.96
5446.00,0.96
5444.00,0.96
5442.00,0.96
5440.00,0.96
5438.00,0.96
5436.00,0.96
5434.00,0.96
5432.00,0.96
5430.00,0.96
5428.00,0.96
5426.00,0.96
5424.00,0.96
5422.00,0.96
5420.00,0.96
5418.00,0.96
5416.00,0.96
5414.00,0.96
5412.00,0.96
5410.00,0.96
5408.00,0.96
5406.00,0.96
5404.00,0.96
5402.00,0.96
5400.00,0.96
5398.00,0.96
5396.00,0.96
5394.00,0.95
5392.00,0.95
5390.00,0.95
5388.00,0.95
5386.00,0.95
5384.00,0.95
5382.00,0.95
5380.00,0.95
5378.00,0.94
5376.00,0.94
5374.00,0.94
5372.00,0.94
5370.00,0.93
5368.00,0.93
5366.00,0.93
5364.00,0.93
5362.00,0.92
5360.00,0.92
5358.00,0.91
5356.00,0.91
5354.00,0.91
5352.00,0.90
5350.00,0.90
5348.00,0.89
5346.00,0.89
5344.00,0.88
5342.00,0.88
5340.00,0.87
5338.00,0.87
5336.00,0.86
5334.00,0.86
5332.00,0.85
5330.00,0.85
5328.00,0.84
5326.00,0.84
5324.00,0.83
5322.00,0.83
5320.00,0.82
5318.00,0.81
5316.00,0.81
5314.00,0.80
5312.00,0.79
5310.00,0.79
5308.00,0.78
5306.00,0.77
5304.00,0.76
5302.00,0.76
5300.00,0.75
5298.00,0.74
5296.00,0.73
5294.00,0.73
5292.00,0.72
5290.00,0.71
5288.00,0.70
5286.00,0.70
5284.00,0.69
5282.00,0.68
5280.00,0.68
5278.00,0.67
5276.00,0.66
5274.00,0.66
5272.00,0.65
5270.00,0.64
5268.00,0.64
5266.00,0.63
5264.00,0.63
5262.00,0.62
5260.00,0.62
5258.00,0.61
5256.00,0.61
5254.00,0.60
5252.00,0.60
5250.00,0.60
5248.00,0.59
5246.00,0.59
5244.00,0.59
5242.00,0.58
5240.00,0.58
5238.00,0.58
5236.00,0.58
5234.00,0.57
5232.00,0.57
5230.00,0.57
5228.00,0.57
5226.00,0.57
5224.00,0.57
5222.00,0.56
5220.00,0.56
5218.00,0.56
5216.00,0.56
5214.00,0.56
5212.00,0.56
5210.00,0.56
5208.00,0.55
5206.00,0.55
5204.00,0.55
5202.00,0.55
5200.00,0.55
5198.00,0.55
5196.00,0.55
5194.00,0.55
5192.00,0.55
5190.00,0.55
5188.00,0.55
5186.00,0.55
5184.00,0.55
5182.00,0.55
5180.00,0.55
5178.00,0.55
5176.00,0.55
5174.00,0.55
5172.00,0.55
5170.00,0.55
5168.00,0.55
5166.00,0.55
5164.00,0.55
5162.00,0.55
5160.00,0.55
5158.00,0.55
5156.00,0.55
5154.00,0.55
5152.00,0.55
5150.00,0.56
5148.00,0.56
5146.00,0.56
5144.00,0.56
5142.00,0.56
5140.00,0.56
5138.00,0.56
5136.00,0.56
5134.00,0.57
5132.00,0.57
5130.00,0.57
5128.00,0.57
5126.00,0.57
5124.00,0.57
5122.00,0.57
5120.00,0.58
5118.00,0.58
5116.00,0.58
5114.00,0.58
5112.00,0.58
5110.00,0.58
5108.00,0.59
5106.00,0.59
5104.00,0.59
5102.00,0.59
5100.00,0.59
5098.00,0.60
5096.00,0.60
5094.00,0.60
5092.00,0.60
5090.00,0.60
5088.00,0.61
5086.00,0.61
5084.00,0.61
5082.00,0.61
5080.00,0.61
5078.00,0.62
5076.00,0.62
5074.00,0.62
5072.00,0.62
5070.00,0.62
5068.00,0.63
5066.00,0.63
5064.00,0.63
5062.00,0.63
5060.00,0.63
5058.00,0.64
5056.00,0.64
5054.00,0.64
5052.00,0.64
5050.00,0.64
5048.00,0.65
5046.00,0.65
5044.00,0.65
5042.00,0.65
5040.00,0.66
5038.00,0.66
5036.00,0.66
5034.00,0.66
5032.00,0.66
5030.00,0.66
5028.00,0.67
5026.00,0.67
5024.00,0.67
5022.00,0.67
5020.00,0.67
5018.00,0.68
5016.00,0.68
5014.00,0.68
5012.00,0.68
5010.00,0.69
5008.00,0.69
5006.00,0.69
5004.00,0.69
5002.00,0.69
5000.00,0.70
4998.00,0.70
4996.00,0.70
4994.00,0.70
4992.00,0.71
4990.00,0.71
4988.00,0.71
4986.00,0.71
4984.00,0.71
4982.00,0.72
4980.00,0.72
4978.00,0.72
4976.00,0.72
4974.00,0.72
4972.00,0.73
4970.00,0.73
4968.00,0.73
4966.00,0.73
4964.00,0.73
4962.00,0.73
4960.00,0.74
4958.00,0.74
4956.00,0.74
4954.00,0.74
4952.00,0.74
4950.00,0.75
4948.00,0.75
4946.00,0.75
4944.00,0.75
4942.00,0.75
4940.00,0.76
4938.00,0.76
4936.00,0.76
4934.00,0.76
4932.00,0.76
4930.00,0.76
4928.00,0.77
4926.00,0.77
4924.00,0.77
4922.00,0.77
4920.00,0.77
4918.00,0.78
4916.00,0.78
4914.00,0.78
4912.00,0.78
4910.00,0.78
4908.00,0.78
4906.00,0.79
4904.00,0.79
4902.00,0.79
4900.00,0.79
4898.00,0.79
4896.00,0.79
4894.00,0.79
4892.00,0.80
4890.00,0.80
4888.00,0.80
4886.00,0.80
4884.00,0.80
4882.00,0.80
4880.00,0.80
4878.00,0.81
4876.00,0.81
4874.00,0.81
4872.00,0.81
4870.00,0.81
4868.00,0.81
4866.00,0.81
4864.00,0.82
4862.00,0.82
4860.00,0.82
4858.00,0.82
4856.00,0.82
4854.00,0.82
4852.00,0.83
4850.00,0.83
4848.00,0.83
4846.00,0.83
4844.00,0.83
4842.00,0.83
4840.00,0.83
4838.00,0.84
4836.00,0.84
4834.00,0.84
4832.00,0.84
4830.00,0.84
4828.00,0.84
4826.00,0.85
4824.00,0.85
4822.00,0.85
4820.00,0.85
4818.00,0.85
4816.00,0.85
4814.00,0.85
4812.00,0.86
4810.00,0.86
4808.00,0.86
4806.00,0.86
4804.00,0.86
4802.00,0.86
4800.00,0.87
4798.00,0.87
4796.00,0.87
4794.00,0.87
4792.00,0.87
4790.00,0.87
4788.00,0.87
4786.00,0.87
4784.00,0.88
4782.00,0.88
4780.00,0.88
4778.00,0.88
4776.00,0.88
4774.00,0.88
4772.00,0.88
4770.00,0.89
4768.00,0.89
4766.00,0.89
4764.00,0.89
4762.00,0.89
4760.00,0.89
4758.00,0.90
4756.00,0.90
4754.00,0.90
4752.00,0.90
4750.00,0.90
4748.00,0.90
4746.00,0.90
4744.00,0.91
4742.00,0.91
4740.00,0.91
4738.00,0.91
4736.00,0.91
4734.00,0.91
4732.00,0.91
4730.00,0.92
4728.00,0.92
4726.00,0.92
4724.00,0.92
4722.00,0.92
4720.00,0.92
4718.00,0.92
4716.00,0.93
4714.00,0.93
4712.00,0.93
4710.00,0.93
4708.00,0.93
4706.00,0.93
4704.00,0.93
4702.00,0.93
4700.00,0.93
4698.00,0.94
4696.00,0.94
4694.00,0.94
4692.00,0.94
4690.00,0.94
4688.00,0.94
4686.00,0.94
4684.00,0.94
4682.00,0.94
4680.00,0.94
4678.00,0.94
4676.00,0.95
4674.00,0.95
4672.00,0.95
4670.00,0.95
4668.00,0.95
4666.00,0.95
4664.00,0.95
4662.00,0.95
4660.00,0.95
4658.00,0.95
4656.00,0.95
4654.00,0.95
4652.00,0.95
4650.00,0.95
4648.00,0.95
4646.00,0.95
4644.00,0.96
4642.00,0.96
4640.00,0.96
4638.00,0.96
4636.00,0.96
4634.00,0.96
4632.00,0.96
4630.00,0.96
4628.00,0.96
4626.00,0.96
4624.00,0.96
4622.00,0.96
4620.00,0.96
4618.00,0.96
4616.00,0.96
4614.00,0.96
4612.00,0.96
4610.00,0.96
4608.00,0.96
4606.00,0.96
4604.00,0.96
4602.00,0.96
4600.00,0.96
4598.00,0.96
4596.00,0.96
4594.00,0.96
4592.00,0.96
4590.00,0.96
4588.00,0.96
4586.00,0.96
4584.00,0.96
4582.00,0.96
4580.00,0.96
4578.00,0.96
4576.00,0.96
4574.00,0.96
4572.00,0.96
4570.00,0.96
4568.00,0.96
4566.00,0.96
4564.00,0.96
4562.00,0.96
4560.00,0.96
4558.00,0.96
4556.00,0.96
4554.00,0.96
4552.00,0.96
4550.00,0.96
4548.00,0.96
4546.00,0.96
4544.00,0.96
4542.00,0.96
4540.00,0.96
4538.00,0.96
4536.00,0.96
4534.00,0.96
4532.00,0.96
4530.00,0.96
4528.00,0.96
4526.00,0.96
4524.00,0.96
4522.00,0.96
4520.00,0.96
4518.00,0.96
4516.00,0.96
4514.00,0.96
4512.00,0.96
4510.00,0.96
4508.00,0.96
4506.00,0.96
4504.00,0.96
4502.00,0.96
4500.00,0.96
4498.00,0.96
4496.00,0.96
4494.00,0.96
4492.00,0.96
4490.00,0.96
4488.00,0.96
4486.00,0.96
4484.00,0.96
4482.00,0.96
4480.00,0.96
4478.00,0.96
4476.00,0.96
4474.00,0.96
4472.00,0.96
4470.00,0.96
4468.00,0.96
4466.00,0.95
4464.00,0.95
4462.00,0.95
4460.00,0.95
4458.00,0.95
4456.00,0.95
4454.00,0.94
4452.00,0.94
4450.00,0.94
4448.00,0.94
4446.00,0.93
4444.00,0.93
4442.00,0.93
4440.00,0.92
4438.00,0.92
4436.00,0.92
4434.00,0.91
4432.00,0.91
4430.00,0.91
4428.00,0.90
4426.00,0.90
4424.00,0.90
4422.00,0.90
4420.00,0.90
4418.00,0.89
4416.00,0.89
4414.00,0.89
4412.00,0.89
4410.00,0.89
4408.00,0.89
4406.00,0.89
4404.00,0.90
4402.00,0.90
4400.00,0.90
4398.00,0.90
4396.00,0.90
4394.00,0.90
4392.00,0.91
4390.00,0.91
4388.00,0.91
4386.00,0.91
4384.00,0.91
4382.00,0.91
4380.00,0.92
4378.00,0.92
4376.00,0.92
4374.00,0.92
4372.00,0.92
4370.00,0.92
4368.00,0.92
4366.00,0.92
4364.00,0.92
4362.00,0.92
4360.00,0.91
4358.00,0.91
4356.00,0.91
4354.00,0.91
4352.00,0.91
4350.00,0.91
4348.00,0.91
4346.00,0.91
4344.00,0.91
4342.00,0.91
4340.00,0.91
4338.00,0.91
4336.00,0.91
4334.00,0.91
4332.00,0.91
4330.00,0.92
4328.00,0.92
4326.00,0.92
4324.00,0.92
4322.00,0.93
4320.00,0.93
4318.00,0.93
4316.00,0.93
4314.00,0.94
4312.00,0.94
4310.00,0.94
4308.00,0.94
4306.00,0.94
4304.00,0.95
4302.00,0.95
4300.00,0.95
4298.00,0.95
4296.00,0.95
4294.00,0.95
4292.00,0.95
4290.00,0.95
4288.00,0.95
4286.00,0.95
4284.00,0.95
4282.00,0.95
4280.00,0.95
4278.00,0.95
4276.00,0.95
4274.00,0.95
4272.00,0.95
4270.00,0.95
4268.00,0.95
4266.00,0.95
4264.00,0.95
4262.00,0.95
4260.00,0.95
4258.00,0.95
4256.00,0.95
4254.00,0.95
4252.00,0.95
4250.00,0.95
4248.00,0.95
4246.00,0.95
4244.00,0.95
4242.00,0.95
4240.00,0.95
4238.00,0.95
4236.00,0.95
4234.00,0.95
4232.00,0.95
4230.00,0.95
4228.00,0.96
4226.00,0.96
4224.00,0.96
4222.00,0.96
4220.00,0.96
4218.00,0.96
4216.00,0.96
4214.00,0.96
4212.00,0.96
4210.00,0.96
4208.00,0.96
4206.00,0.96
4204.00,0.96
4202.00,0.96
4200.00,0.96
4198.00,0.96
4196.00,0.96
4194.00,0.96
4192.00,0.96
4190.00,0.96
4188.00,0.96
4186.00,0.96
4184.00,0.96
4182.00,0.96
4180.00,0.96
4178.00,0.96
4176.00,0.96
4174.00,0.96
4172.00,0.95
4170.00,0.95
4168.00,0.95
4166.00,0.95
4164.00,0.95
4162.00,0.95
4160.00,0.95
4158.00,0.95
4156.00,0.95
4154.00,0.95
4152.00,0.95
4150.00,0.95
4148.00,0.95
4146.00,0.95
4144.00,0.95
4142.00,0.95
4140.00,0.95
4138.00,0.95
4136.00,0.95
4134.00,0.95
4132.00,0.95
4130.00,0.95
4128.00,0.95
4126.00,0.95
4124.00,0.95
4122.00,0.95
4120.00,0.95
4118.00,0.95
4116.00,0.95
4114.00,0.95
4112.00,0.95
4110.00,0.95
4108.00,0.95
4106.00,0.95
4104.00,0.95
4102.00,0.95
4100.00,0.95
4098.00,0.95
4096.00,0.95
4094.00,0.94
4092.00,0.94
4090.00,0.94
4088.00,0.94
4086.00,0.94
4084.00,0.94
4082.00,0.94
4080.00,0.94
4078.00,0.94
4076.00,0.94
4074.00,0.94
4072.00,0.94
4070.00,0.94
4068.00,0.94
4066.00,0.94
4064.00,0.94
4062.00,0.94
4060.00,0.94
4058.00,0.94
4056.00,0.94
4054.00,0.94
4052.00,0.94
4050.00,0.94
4048.00,0.94
4046.00,0.94
4044.00,0.94
4042.00,0.95
4040.00,0.95
4038.00,0.95
4036.00,0.95
4034.00,0.95
4032.00,0.95
4030.00,0.95
4028.00,0.95
4026.00,0.95
4024.00,0.95
4022.00,0.95
4020.00,0.95
4018.00,0.95
4016.00,0.95
4014.00,0.95
4012.00,0.95
4010.00,0.95
4008.00,0.95
4006.00,0.95
4004.00,0.95
4002.00,0.95
4000.00,0.95
