创建为新数据集,样品 425 用户 Administrator 日期 星期日, 七月 15 2018
cm-1,%T
10000.00,0.95
9999.00,0.95
9998.00,0.95
9997.00,0.95
9996.00,0.95
9995.00,0.95
9994.00,0.95
9993.00,0.95
9992.00,0.94
9991.00,0.94
9990.00,0.94
9989.00,0.94
9988.00,0.94
9987.00,0.94
9986.00,0.94
9985.00,0.94
9984.00,0.94
9983.00,0.94
9982.00,0.94
9981.00,0.93
9980.00,0.93
9979.00,0.93
9978.00,0.93
9977.00,0.93
9976.00,0.93
9975.00,0.93
9974.00,0.93
9973.00,0.93
9972.00,0.93
9971.00,0.93
9970.00,0.93
9969.00,0.93
9968.00,0.93
9967.00,0.93
9966.00,0.93
9965.00,0.93
9964.00,0.93
9963.00,0.93
9962.00,0.93
9961.00,0.93
9960.00,0.94
9959.00,0.94
9958.00,0.94
9957.00,0.94
9956.00,0.94
9955.00,0.95
9954.00,0.95
9953.00,0.95
9952.00,0.95
9951.00,0.95
9950.00,0.95
9949.00,0.95
9948.00,0.95
9947.00,0.95
9946.00,0.95
9945.00,0.95
9944.00,0.95
9943.00,0.95
9942.00,0.94
9941.00,0.94
9940.00,0.94
9939.00,0.94
9938.00,0.94
9937.00,0.94
9936.00,0.94
9935.00,0.94
9934.00,0.94
9933.00,0.94
9932.00,0.94
9931.00,0.94
9930.00,0.94
9929.00,0.93
9928.00,0.93
9927.00,0.93
9926.00,0.93
9925.00,0.93
9924.00,0.93
9923.00,0.93
9922.00,0.93
9921.00,0.93
9920.00,0.93
9919.00,0.93
9918.00,0.93
9917.00,0.93
9916.00,0.93
9915.00,0.93
9914.00,0.94
9913.00,0.94
9912.00,0.94
9911.00,0.94
9910.00,0.94
9909.00,0.94
9908.00,0.94
9907.00,0.94
9906.00,0.94
9905.00,0.94
9904.00,0.94
9903.00,0.94
9902.00,0.94
9901.00,0.94
9900.00,0.94
9899.00,0.93
9898.00,0.93
9897.00,0.93
9896.00,0.93
9895.00,0.93
9894.00,0.92
9893.00,0.92
9892.00,0.92
9891.00,0.92
9890.00,0.92
9889.00,0.92
9888.00,0.92
9887.00,0.92
9886.00,0.92
9885.00,0.92
9884.00,0.92
9883.00,0.91
9882.00,0.91
9881.00,0.91
9880.00,0.91
9879.00,0.91
9878.00,0.91
9877.00,0.91
9876.00,0.91
9875.00,0.91
9874.00,0.91
9873.00,0.91
9872.00,0.90
9871.00,0.90
9870.00,0.90
9869.00,0.90
9868.00,0.90
9867.00,0.90
9866.00,0.91
9865.00,0.91
9864.00,0.91
9863.00,0.91
9862.00,0.91
9861.00,0.91
9860.00,0.91
9859.00,0.91
9858.00,0.91
9857.00,0.92
9856.00,0.92
9855.00,0.92
9854.00,0.92
9853.00,0.92
9852.00,0.92
9851.00,0.92
9850.00,0.92
9849.00,0.92
9848.00,0.92
9847.00,0.92
9846.00,0.92
9845.00,0.92
9844.00,0.92
9843.00,0.92
9842.00,0.92
9841.00,0.92
9840.00,0.92
9839.00,0.92
9838.00,0.92
9837.00,0.92
9836.00,0.92
9835.00,0.92
9834.00,0.92
9833.00,0.93
9832.00,0.93
9831.00,0.93
9830.00,0.93
9829.00,0.93
9828.00,0.93
9827.00,0.93
9826.00,0.93
9825.00,0.94
9824.00,0.94
9823.00,0.94
9822.00,0.94
9821.00,0.94
9820.00,0.94
9819.00,0.94
9818.00,0.94
9817.00,0.95
9816.00,0.95
9815.00,0.95
9814.00,0.95
9813.00,0.95
9812.00,0.95
9811.00,0.95
9810.00,0.95
9809.00,0.95
9808.00,0.94
9807.00,0.94
9806.00,0.94
9805.00,0.94
9804.00,0.94
9803.00,0.94
9802.00,0.94
9801.00,0.94
9800.00,0.94
9799.00,0.94
9798.00,0.94
9797.00,0.94
9796.00,0.94
9795.00,0.93
9794.00,0.93
9793.00,0.93
9792.00,0.93
9791.00,0.93
9790.00,0.92
9789.00,0.92
9788.00,0.92
9787.00,0.92
9786.00,0.92
9785.00,0.91
9784.00,0.91
9783.00,0.91
9782.00,0.91
9781.00,0.91
9780.00,0.91
9779.00,0.91
9778.00,0.91
9777.00,0.91
9776.00,0.91
9775.00,0.91
9774.00,0.91
9773.00,0.91
9772.00,0.91
9771.00,0.91
9770.00,0.90
9769.00,0.90
9768.00,0.90
9767.00,0.90
9766.00,0.90
9765.00,0.90
9764.00,0.90
9763.00,0.90
9762.00,0.90
9761.00,0.90
9760.00,0.90
9759.00,0.90
9758.00,0.91
9757.00,0.91
9756.00,0.91
9755.00,0.91
9754.00,0.92
9753.00,0.92
9752.00,0.92
9751.00,0.92
9750.00,0.93
9749.00,0.93
9748.00,0.93
9747.00,0.93
9746.00,0.93
9745.00,0.93
9744.00,0.93
9743.00,0.93
9742.00,0.93
9741.00,0.93
9740.00,0.93
9739.00,0.93
9738.00,0.93
9737.00,0.92
9736.00,0.92
9735.00,0.92
9734.00,0.92
9733.00,0.92
9732.00,0.92
9731.00,0.92
9730.00,0.92
9729.00,0.92
9728.00,0.91
9727.00,0.91
9726.00,0.91
9725.00,0.91
9724.00,0.91
9723.00,0.91
9722.00,0.91
9721.00,0.91
9720.00,0.91
9719.00,0.91
9718.00,0.91
9717.00,0.91
9716.00,0.91
9715.00,0.91
9714.00,0.91
9713.00,0.91
9712.00,0.91
9711.00,0.91
9710.00,0.91
9709.00,0.91
9708.00,0.91
9707.00,0.92
9706.00,0.92
9705.00,0.92
9704.00,0.92
9703.00,0.92
9702.00,0.92
9701.00,0.92
9700.00,0.92
9699.00,0.92
9698.00,0.92
9697.00,0.91
9696.00,0.91
9695.00,0.91
9694.00,0.91
9693.00,0.91
9692.00,0.91
9691.00,0.90
9690.00,0.90
9689.00,0.90
9688.00,0.90
9687.00,0.90
9686.00,0.90
9685.00,0.90
9684.00,0.90
9683.00,0.90
9682.00,0.90
9681.00,0.90
9680.00,0.91
9679.00,0.91
9678.00,0.91
9677.00,0.91
9676.00,0.91
9675.00,0.91
9674.00,0.91
9673.00,0.92
9672.00,0.92
9671.00,0.92
9670.00,0.92
9669.00,0.92
9668.00,0.92
9667.00,0.92
9666.00,0.92
9665.00,0.92
9664.00,0.92
9663.00,0.92
9662.00,0.92
9661.00,0.92
9660.00,0.92
9659.00,0.92
9658.00,0.92
9657.00,0.92
9656.00,0.92
9655.00,0.92
9654.00,0.92
9653.00,0.92
9652.00,0.92
9651.00,0.92
9650.00,0.92
9649.00,0.92
9648.00,0.92
9647.00,0.92
9646.00,0.92
9645.00,0.92
9644.00,0.92
9643.00,0.92
9642.00,0.92
9641.00,0.92
9640.00,0.92
9639.00,0.92
9638.00,0.92
9637.00,0.92
9636.00,0.92
9635.00,0.92
9634.00,0.92
9633.00,0.93
9632.00,0.93
9631.00,0.93
9630.00,0.93
9629.00,0.93
9628.00,0.92
9627.00,0.92
9626.00,0.92
9625.00,0.92
9624.00,0.92
9623.00,0.92
9622.00,0.92
9621.00,0.91
9620.00,0.91
9619.00,0.91
9618.00,0.91
9617.00,0.91
9616.00,0.91
9615.00,0.90
9614.00,0.90
9613.00,0.90
9612.00,0.90
9611.00,0.90
9610.00,0.90
9609.00,0.91
9608.00,0.91
9607.00,0.91
9606.00,0.91
9605.00,0.91
9604.00,0.92
9603.00,0.92
9602.00,0.92
9601.00,0.93
9600.00,0.93
9599.00,0.93
9598.00,0.94
9597.00,0.94
9596.00,0.94
9595.00,0.94
9594.00,0.95
9593.00,0.95
9592.00,0.95
9591.00,0.95
9590.00,0.95
9589.00,0.95
9588.00,0.95
9587.00,0.95
9586.00,0.95
9585.00,0.94
9584.00,0.94
9583.00,0.94
9582.00,0.94
9581.00,0.93
9580.00,0.93
9579.00,0.93
9578.00,0.93
9577.00,0.92
9576.00,0.92
9575.00,0.92
9574.00,0.92
9573.00,0.91
9572.00,0.91
9571.00,0.91
9570.00,0.91
9569.00,0.91
9568.00,0.91
9567.00,0.91
9566.00,0.91
9565.00,0.90
9564.00,0.90
9563.00,0.90
9562.00,0.90
9561.00,0.90
9560.00,0.90
9559.00,0.90
9558.00,0.90
9557.00,0.90
9556.00,0.90
9555.00,0.90
9554.00,0.90
9553.00,0.90
9552.00,0.90
9551.00,0.90
9550.00,0.90
9549.00,0.90
9548.00,0.90
9547.00,0.90
9546.00,0.90
9545.00,0.90
9544.00,0.90
9543.00,0.91
9542.00,0.91
9541.00,0.91
9540.00,0.91
9539.00,0.91
9538.00,0.91
9537.00,0.91
9536.00,0.91
9535.00,0.91
9534.00,0.91
9533.00,0.90
9532.00,0.90
9531.00,0.90
9530.00,0.90
9529.00,0.90
9528.00,0.89
9527.00,0.89
9526.00,0.89
9525.00,0.89
9524.00,0.89
9523.00,0.89
9522.00,0.89
9521.00,0.89
9520.00,0.89
9519.00,0.89
9518.00,0.89
9517.00,0.89
9516.00,0.90
9515.00,0.90
9514.00,0.90
9513.00,0.90
9512.00,0.91
9511.00,0.91
9510.00,0.91
9509.00,0.91
9508.00,0.92
9507.00,0.92
9506.00,0.92
9505.00,0.92
9504.00,0.92
9503.00,0.92
9502.00,0.92
9501.00,0.92
9500.00,0.92
9499.00,0.93
9498.00,0.93
9497.00,0.93
9496.00,0.93
9495.00,0.93
9494.00,0.93
9493.00,0.93
9492.00,0.93
9491.00,0.93
9490.00,0.93
9489.00,0.93
9488.00,0.93
9487.00,0.93
9486.00,0.93
9485.00,0.93
9484.00,0.93
9483.00,0.93
9482.00,0.93
9481.00,0.93
9480.00,0.93
9479.00,0.93
9478.00,0.93
9477.00,0.93
9476.00,0.93
9475.00,0.93
9474.00,0.93
9473.00,0.93
9472.00,0.92
9471.00,0.92
9470.00,0.92
9469.00,0.92
9468.00,0.92
9467.00,0.92
9466.00,0.92
9465.00,0.92
9464.00,0.91
9463.00,0.91
9462.00,0.91
9461.00,0.91
9460.00,0.91
9459.00,0.91
9458.00,0.91
9457.00,0.91
9456.00,0.91
9455.00,0.91
9454.00,0.91
9453.00,0.91
9452.00,0.91
9451.00,0.91
9450.00,0.91
9449.00,0.91
9448.00,0.91
9447.00,0.91
9446.00,0.91
9445.00,0.91
9444.00,0.91
9443.00,0.91
9442.00,0.91
9441.00,0.91
9440.00,0.91
9439.00,0.92
9438.00,0.92
9437.00,0.92
9436.00,0.92
9435.00,0.92
9434.00,0.92
9433.00,0.92
9432.00,0.92
9431.00,0.92
9430.00,0.93
9429.00,0.93
9428.00,0.93
9427.00,0.93
9426.00,0.93
9425.00,0.93
9424.00,0.93
9423.00,0.93
9422.00,0.93
9421.00,0.93
9420.00,0.93
9419.00,0.93
9418.00,0.93
9417.00,0.93
9416.00,0.93
9415.00,0.93
9414.00,0.93
9413.00,0.93
9412.00,0.93
9411.00,0.93
9410.00,0.93
9409.00,0.93
9408.00,0.93
9407.00,0.93
9406.00,0.93
9405.00,0.93
9404.00,0.93
9403.00,0.93
9402.00,0.93
9401.00,0.93
9400.00,0.93
9399.00,0.93
9398.00,0.93
9397.00,0.93
9396.00,0.93
9395.00,0.93
9394.00,0.93
9393.00,0.93
9392.00,0.93
9391.00,0.93
9390.00,0.93
9389.00,0.93
9388.00,0.93
9387.00,0.94
9386.00,0.94
9385.00,0.94
9384.00,0.94
9383.00,0.94
9382.00,0.94
9381.00,0.94
9380.00,0.94
9379.00,0.94
9378.00,0.94
9377.00,0.94
9376.00,0.94
9375.00,0.94
9374.00,0.94
9373.00,0.94
9372.00,0.93
9371.00,0.93
9370.00,0.93
9369.00,0.93
9368.00,0.93
9367.00,0.93
9366.00,0.93
9365.00,0.93
9364.00,0.93
9363.00,0.93
9362.00,0.93
9361.00,0.93
9360.00,0.93
9359.00,0.93
9358.00,0.93
9357.00,0.93
9356.00,0.93
9355.00,0.93
9354.00,0.93
9353.00,0.93
9352.00,0.93
9351.00,0.93
9350.00,0.93
9349.00,0.93
9348.00,0.93
9347.00,0.93
9346.00,0.93
9345.00,0.93
9344.00,0.93
9343.00,0.92
9342.00,0.92
9341.00,0.92
9340.00,0.92
9339.00,0.92
9338.00,0.92
9337.00,0.92
9336.00,0.92
9335.00,0.91
9334.00,0.91
9333.00,0.91
9332.00,0.91
9331.00,0.91
9330.00,0.91
9329.00,0.91
9328.00,0.91
9327.00,0.92
9326.00,0.92
9325.00,0.92
9324.00,0.92
9323.00,0.92
9322.00,0.92
9321.00,0.92
9320.00,0.92
9319.00,0.92
9318.00,0.92
9317.00,0.93
9316.00,0.93
9315.00,0.93
9314.00,0.93
9313.00,0.93
9312.00,0.93
9311.00,0.93
9310.00,0.93
9309.00,0.93
9308.00,0.93
9307.00,0.93
9306.00,0.93
9305.00,0.93
9304.00,0.93
9303.00,0.93
9302.00,0.92
9301.00,0.92
9300.00,0.92
9299.00,0.92
9298.00,0.92
9297.00,0.92
9296.00,0.92
9295.00,0.92
9294.00,0.92
9293.00,0.92
9292.00,0.92
9291.00,0.92
9290.00,0.92
9289.00,0.92
9288.00,0.92
9287.00,0.92
9286.00,0.92
9285.00,0.92
9284.00,0.92
9283.00,0.92
9282.00,0.93
9281.00,0.93
9280.00,0.93
9279.00,0.93
9278.00,0.93
9277.00,0.93
9276.00,0.93
9275.00,0.93
9274.00,0.93
9273.00,0.93
9272.00,0.93
9271.00,0.93
9270.00,0.93
9269.00,0.93
9268.00,0.93
9267.00,0.93
9266.00,0.93
9265.00,0.93
9264.00,0.93
9263.00,0.93
9262.00,0.93
9261.00,0.93
9260.00,0.93
9259.00,0.93
9258.00,0.93
9257.00,0.94
9256.00,0.94
9255.00,0.94
9254.00,0.94
9253.00,0.94
9252.00,0.94
9251.00,0.94
9250.00,0.94
9249.00,0.94
9248.00,0.94
9247.00,0.94
9246.00,0.95
9245.00,0.95
9244.00,0.95
9243.00,0.95
9242.00,0.95
9241.00,0.95
9240.00,0.94
9239.00,0.94
9238.00,0.94
9237.00,0.94
9236.00,0.94
9235.00,0.94
9234.00,0.94
9233.00,0.94
9232.00,0.94
9231.00,0.94
9230.00,0.94
9229.00,0.94
9228.00,0.94
9227.00,0.94
9226.00,0.94
9225.00,0.94
9224.00,0.94
9223.00,0.94
9222.00,0.94
9221.00,0.94
9220.00,0.94
9219.00,0.94
9218.00,0.94
9217.00,0.94
9216.00,0.94
9215.00,0.94
9214.00,0.94
9213.00,0.94
9212.00,0.94
9211.00,0.94
9210.00,0.94
9209.00,0.94
9208.00,0.94
9207.00,0.93
9206.00,0.93
9205.00,0.93
9204.00,0.93
9203.00,0.93
9202.00,0.93
9201.00,0.93
9200.00,0.92
9199.00,0.92
9198.00,0.92
9197.00,0.92
9196.00,0.92
9195.00,0.92
9194.00,0.92
9193.00,0.92
9192.00,0.93
9191.00,0.93
9190.00,0.93
9189.00,0.93
9188.00,0.93
9187.00,0.93
9186.00,0.93
9185.00,0.93
9184.00,0.93
9183.00,0.94
9182.00,0.94
9181.00,0.94
9180.00,0.94
9179.00,0.94
9178.00,0.94
9177.00,0.94
9176.00,0.94
9175.00,0.94
9174.00,0.94
9173.00,0.94
9172.00,0.95
9171.00,0.95
9170.00,0.95
9169.00,0.95
9168.00,0.95
9167.00,0.95
9166.00,0.95
9165.00,0.95
9164.00,0.95
9163.00,0.95
9162.00,0.95
9161.00,0.95
9160.00,0.95
9159.00,0.95
9158.00,0.95
9157.00,0.95
9156.00,0.95
9155.00,0.95
9154.00,0.95
9153.00,0.94
9152.00,0.94
9151.00,0.94
9150.00,0.94
9149.00,0.94
9148.00,0.94
9147.00,0.94
9146.00,0.94
9145.00,0.94
9144.00,0.94
9143.00,0.94
9142.00,0.94
9141.00,0.94
9140.00,0.94
9139.00,0.94
9138.00,0.94
9137.00,0.94
9136.00,0.94
9135.00,0.94
9134.00,0.94
9133.00,0.94
9132.00,0.94
9131.00,0.94
9130.00,0.94
9129.00,0.94
9128.00,0.94
9127.00,0.94
9126.00,0.94
9125.00,0.93
9124.00,0.93
9123.00,0.93
9122.00,0.93
9121.00,0.93
9120.00,0.93
9119.00,0.92
9118.00,0.92
9117.00,0.92
9116.00,0.92
9115.00,0.92
9114.00,0.92
9113.00,0.91
9112.00,0.91
9111.00,0.91
9110.00,0.91
9109.00,0.91
9108.00,0.91
9107.00,0.91
9106.00,0.91
9105.00,0.91
9104.00,0.91
9103.00,0.91
9102.00,0.91
9101.00,0.92
9100.00,0.92
9099.00,0.92
9098.00,0.92
9097.00,0.92
9096.00,0.92
9095.00,0.92
9094.00,0.92
9093.00,0.92
9092.00,0.92
9091.00,0.93
9090.00,0.93
9089.00,0.93
9088.00,0.93
9087.00,0.93
9086.00,0.93
9085.00,0.93
9084.00,0.93
9083.00,0.93
9082.00,0.93
9081.00,0.93
9080.00,0.93
9079.00,0.93
9078.00,0.93
9077.00,0.93
9076.00,0.93
9075.00,0.93
9074.00,0.94
9073.00,0.94
9072.00,0.94
9071.00,0.94
9070.00,0.94
9069.00,0.94
9068.00,0.94
9067.00,0.94
9066.00,0.94
9065.00,0.95
9064.00,0.95
9063.00,0.95
9062.00,0.95
9061.00,0.95
9060.00,0.95
9059.00,0.95
9058.00,0.95
9057.00,0.95
9056.00,0.95
9055.00,0.95
9054.00,0.95
9053.00,0.95
9052.00,0.94
9051.00,0.94
9050.00,0.94
9049.00,0.94
9048.00,0.94
9047.00,0.94
9046.00,0.94
9045.00,0.94
9044.00,0.94
9043.00,0.94
9042.00,0.94
9041.00,0.94
9040.00,0.94
9039.00,0.94
9038.00,0.94
9037.00,0.94
9036.00,0.94
9035.00,0.94
9034.00,0.94
9033.00,0.94
9032.00,0.94
9031.00,0.94
9030.00,0.94
9029.00,0.94
9028.00,0.94
9027.00,0.94
9026.00,0.94
9025.00,0.94
9024.00,0.94
9023.00,0.94
9022.00,0.94
9021.00,0.94
9020.00,0.94
9019.00,0.94
9018.00,0.93
9017.00,0.93
9016.00,0.93
9015.00,0.93
9014.00,0.93
9013.00,0.93
9012.00,0.93
9011.00,0.93
9010.00,0.94
9009.00,0.94
9008.00,0.94
9007.00,0.94
9006.00,0.94
9005.00,0.94
9004.00,0.94
9003.00,0.94
9002.00,0.94
9001.00,0.94
9000.00,0.94
8999.00,0.94
8998.00,0.94
8997.00,0.94
8996.00,0.94
8995.00,0.94
8994.00,0.94
8993.00,0.94
8992.00,0.94
8991.00,0.94
8990.00,0.94
8989.00,0.94
8988.00,0.94
8987.00,0.94
8986.00,0.95
8985.00,0.95
8984.00,0.95
8983.00,0.95
8982.00,0.95
8981.00,0.95
8980.00,0.95
8979.00,0.95
8978.00,0.95
8977.00,0.95
8976.00,0.95
8975.00,0.95
8974.00,0.95
8973.00,0.95
8972.00,0.95
8971.00,0.94
8970.00,0.94
8969.00,0.94
8968.00,0.94
8967.00,0.94
8966.00,0.94
8965.00,0.94
8964.00,0.94
8963.00,0.94
8962.00,0.94
8961.00,0.94
8960.00,0.94
8959.00,0.93
8958.00,0.93
8957.00,0.93
8956.00,0.93
8955.00,0.93
8954.00,0.93
8953.00,0.93
8952.00,0.93
8951.00,0.93
8950.00,0.93
8949.00,0.93
8948.00,0.93
8947.00,0.93
8946.00,0.93
8945.00,0.93
8944.00,0.93
8943.00,0.93
8942.00,0.93
8941.00,0.93
8940.00,0.93
8939.00,0.93
8938.00,0.93
8937.00,0.93
8936.00,0.93
8935.00,0.94
8934.00,0.94
8933.00,0.94
8932.00,0.94
8931.00,0.94
8930.00,0.94
8929.00,0.94
8928.00,0.94
8927.00,0.95
8926.00,0.95
8925.00,0.95
8924.00,0.95
8923.00,0.95
8922.00,0.95
8921.00,0.95
8920.00,0.95
8919.00,0.94
8918.00,0.94
8917.00,0.94
8916.00,0.94
8915.00,0.94
8914.00,0.94
8913.00,0.94
8912.00,0.94
8911.00,0.94
8910.00,0.94
8909.00,0.94
8908.00,0.95
8907.00,0.95
8906.00,0.95
8905.00,0.95
8904.00,0.95
8903.00,0.95
8902.00,0.94
8901.00,0.94
8900.00,0.94
8899.00,0.94
8898.00,0.94
8897.00,0.94
8896.00,0.94
8895.00,0.94
8894.00,0.94
8893.00,0.94
8892.00,0.94
8891.00,0.94
8890.00,0.94
8889.00,0.93
8888.00,0.93
8887.00,0.93
8886.00,0.93
8885.00,0.93
8884.00,0.93
8883.00,0.93
8882.00,0.93
8881.00,0.93
8880.00,0.93
8879.00,0.93
8878.00,0.93
8877.00,0.93
8876.00,0.93
8875.00,0.93
8874.00,0.93
8873.00,0.94
8872.00,0.94
8871.00,0.94
8870.00,0.94
8869.00,0.94
8868.00,0.94
8867.00,0.94
8866.00,0.94
8865.00,0.94
8864.00,0.94
8863.00,0.93
8862.00,0.93
8861.00,0.93
8860.00,0.93
8859.00,0.93
8858.00,0.93
8857.00,0.93
8856.00,0.93
8855.00,0.93
8854.00,0.92
8853.00,0.92
8852.00,0.92
8851.00,0.92
8850.00,0.92
8849.00,0.92
8848.00,0.92
8847.00,0.92
8846.00,0.92
8845.00,0.92
8844.00,0.93
8843.00,0.93
8842.00,0.93
8841.00,0.93
8840.00,0.93
8839.00,0.93
8838.00,0.93
8837.00,0.93
8836.00,0.94
8835.00,0.94
8834.00,0.94
8833.00,0.94
8832.00,0.94
8831.00,0.94
8830.00,0.94
8829.00,0.94
8828.00,0.94
8827.00,0.94
8826.00,0.94
8825.00,0.94
8824.00,0.94
8823.00,0.94
8822.00,0.94
8821.00,0.94
8820.00,0.94
8819.00,0.94
8818.00,0.94
8817.00,0.94
8816.00,0.94
8815.00,0.94
8814.00,0.94
8813.00,0.94
8812.00,0.94
8811.00,0.94
8810.00,0.94
8809.00,0.94
8808.00,0.94
8807.00,0.94
8806.00,0.93
8805.00,0.93
8804.00,0.93
8803.00,0.93
8802.00,0.93
8801.00,0.93
8800.00,0.93
8799.00,0.93
8798.00,0.92
8797.00,0.92
8796.00,0.92
8795.00,0.92
8794.00,0.92
8793.00,0.92
8792.00,0.92
8791.00,0.92
8790.00,0.92
8789.00,0.92
8788.00,0.91
8787.00,0.91
8786.00,0.91
8785.00,0.91
8784.00,0.91
8783.00,0.91
8782.00,0.91
8781.00,0.91
8780.00,0.91
8779.00,0.91
8778.00,0.91
8777.00,0.91
8776.00,0.91
8775.00,0.91
8774.00,0.91
8773.00,0.91
8772.00,0.91
8771.00,0.91
8770.00,0.91
8769.00,0.91
8768.00,0.91
8767.00,0.91
8766.00,0.91
8765.00,0.91
8764.00,0.91
8763.00,0.91
8762.00,0.91
8761.00,0.91
8760.00,0.91
8759.00,0.91
8758.00,0.92
8757.00,0.92
8756.00,0.92
8755.00,0.92
8754.00,0.92
8753.00,0.92
8752.00,0.92
8751.00,0.92
8750.00,0.92
8749.00,0.92
8748.00,0.92
8747.00,0.92
8746.00,0.92
8745.00,0.92
8744.00,0.92
8743.00,0.92
8742.00,0.92
8741.00,0.92
8740.00,0.92
8739.00,0.92
8738.00,0.92
8737.00,0.92
8736.00,0.92
8735.00,0.92
8734.00,0.92
8733.00,0.92
8732.00,0.92
8731.00,0.92
8730.00,0.91
8729.00,0.91
8728.00,0.91
8727.00,0.91
8726.00,0.91
8725.00,0.91
8724.00,0.91
8723.00,0.91
8722.00,0.91
8721.00,0.91
8720.00,0.91
8719.00,0.91
8718.00,0.91
8717.00,0.91
8716.00,0.90
8715.00,0.90
8714.00,0.90
8713.00,0.90
8712.00,0.90
8711.00,0.90
8710.00,0.90
8709.00,0.90
8708.00,0.90
8707.00,0.90
8706.00,0.90
8705.00,0.90
8704.00,0.90
8703.00,0.90
8702.00,0.90
8701.00,0.90
8700.00,0.90
8699.00,0.90
8698.00,0.90
8697.00,0.90
8696.00,0.90
8695.00,0.90
8694.00,0.90
8693.00,0.90
8692.00,0.90
8691.00,0.90
8690.00,0.90
8689.00,0.90
8688.00,0.90
8687.00,0.91
8686.00,0.91
8685.00,0.91
8684.00,0.91
8683.00,0.91
8682.00,0.91
8681.00,0.91
8680.00,0.91
8679.00,0.91
8678.00,0.91
8677.00,0.91
8676.00,0.91
8675.00,0.91
8674.00,0.92
8673.00,0.92
8672.00,0.91
8671.00,0.91
8670.00,0.91
8669.00,0.91
8668.00,0.91
8667.00,0.91
8666.00,0.91
8665.00,0.91
8664.00,0.91
8663.00,0.91
8662.00,0.91
8661.00,0.91
8660.00,0.90
8659.00,0.90
8658.00,0.90
8657.00,0.90
8656.00,0.90
8655.00,0.90
8654.00,0.90
8653.00,0.90
8652.00,0.90
8651.00,0.90
8650.00,0.90
8649.00,0.90
8648.00,0.90
8647.00,0.90
8646.00,0.90
8645.00,0.90
8644.00,0.90
8643.00,0.90
8642.00,0.90
8641.00,0.90
8640.00,0.90
8639.00,0.90
8638.00,0.90
8637.00,0.90
8636.00,0.90
8635.00,0.90
8634.00,0.90
8633.00,0.90
8632.00,0.90
8631.00,0.90
8630.00,0.90
8629.00,0.90
8628.00,0.90
8627.00,0.90
8626.00,0.89
8625.00,0.89
8624.00,0.89
8623.00,0.89
8622.00,0.89
8621.00,0.89
8620.00,0.89
8619.00,0.89
8618.00,0.89
8617.00,0.89
8616.00,0.89
8615.00,0.89
8614.00,0.89
8613.00,0.89
8612.00,0.89
8611.00,0.90
8610.00,0.90
8609.00,0.90
8608.00,0.90
8607.00,0.90
8606.00,0.90
8605.00,0.90
8604.00,0.90
8603.00,0.90
8602.00,0.90
8601.00,0.90
8600.00,0.90
8599.00,0.90
8598.00,0.90
8597.00,0.90
8596.00,0.90
8595.00,0.90
8594.00,0.90
8593.00,0.90
8592.00,0.90
8591.00,0.90
8590.00,0.90
8589.00,0.89
8588.00,0.89
8587.00,0.89
8586.00,0.89
8585.00,0.89
8584.00,0.89
8583.00,0.89
8582.00,0.89
8581.00,0.89
8580.00,0.89
8579.00,0.89
8578.00,0.89
8577.00,0.89
8576.00,0.89
8575.00,0.89
8574.00,0.89
8573.00,0.89
8572.00,0.89
8571.00,0.89
8570.00,0.89
8569.00,0.89
8568.00,0.89
8567.00,0.89
8566.00,0.89
8565.00,0.89
8564.00,0.89
8563.00,0.89
8562.00,0.89
8561.00,0.89
8560.00,0.88
8559.00,0.88
8558.00,0.88
8557.00,0.88
8556.00,0.88
8555.00,0.88
8554.00,0.88
8553.00,0.88
8552.00,0.88
8551.00,0.88
8550.00,0.88
8549.00,0.88
8548.00,0.88
8547.00,0.88
8546.00,0.88
8545.00,0.88
8544.00,0.88
8543.00,0.88
8542.00,0.88
8541.00,0.88
8540.00,0.88
8539.00,0.88
8538.00,0.88
8537.00,0.88
8536.00,0.88
8535.00,0.88
8534.00,0.88
8533.00,0.88
8532.00,0.88
8531.00,0.88
8530.00,0.88
8529.00,0.88
8528.00,0.88
8527.00,0.88
8526.00,0.88
8525.00,0.88
8524.00,0.88
8523.00,0.88
8522.00,0.88
8521.00,0.88
8520.00,0.88
8519.00,0.88
8518.00,0.88
8517.00,0.87
8516.00,0.87
8515.00,0.87
8514.00,0.87
8513.00,0.87
8512.00,0.87
8511.00,0.87
8510.00,0.87
8509.00,0.87
8508.00,0.87
8507.00,0.87
8506.00,0.87
8505.00,0.87
8504.00,0.87
8503.00,0.87
8502.00,0.87
8501.00,0.87
8500.00,0.87
8499.00,0.87
8498.00,0.87
8497.00,0.87
8496.00,0.87
8495.00,0.87
8494.00,0.88
8493.00,0.88
8492.00,0.88
8491.00,0.88
8490.00,0.88
8489.00,0.88
8488.00,0.88
8487.00,0.88
8486.00,0.88
8485.00,0.88
8484.00,0.88
8483.00,0.88
8482.00,0.88
8481.00,0.88
8480.00,0.88
8479.00,0.88
8478.00,0.88
8477.00,0.87
8476.00,0.87
8475.00,0.87
8474.00,0.87
8473.00,0.87
8472.00,0.87
8471.00,0.87
8470.00,0.87
8469.00,0.87
8468.00,0.87
8467.00,0.86
8466.00,0.86
8465.00,0.86
8464.00,0.86
8463.00,0.86
8462.00,0.86
8461.00,0.86
8460.00,0.86
8459.00,0.86
8458.00,0.86
8457.00,0.86
8456.00,0.86
8455.00,0.86
8454.00,0.86
8453.00,0.86
8452.00,0.86
8451.00,0.86
8450.00,0.86
8449.00,0.86
8448.00,0.86
8447.00,0.86
8446.00,0.86
8445.00,0.86
8444.00,0.86
8443.00,0.86
8442.00,0.86
8441.00,0.86
8440.00,0.86
8439.00,0.86
8438.00,0.86
8437.00,0.86
8436.00,0.86
8435.00,0.86
8434.00,0.86
8433.00,0.86
8432.00,0.86
8431.00,0.86
8430.00,0.86
8429.00,0.86
8428.00,0.86
8427.00,0.86
8426.00,0.86
8425.00,0.86
8424.00,0.86
8423.00,0.86
8422.00,0.86
8421.00,0.86
8420.00,0.86
8419.00,0.86
8418.00,0.86
8417.00,0.86
8416.00,0.86
8415.00,0.86
8414.00,0.86
8413.00,0.86
8412.00,0.86
8411.00,0.86
8410.00,0.86
8409.00,0.86
8408.00,0.86
8407.00,0.86
8406.00,0.86
8405.00,0.86
8404.00,0.86
8403.00,0.86
8402.00,0.86
8401.00,0.87
8400.00,0.87
8399.00,0.87
8398.00,0.87
8397.00,0.87
8396.00,0.87
8395.00,0.87
8394.00,0.87
8393.00,0.87
8392.00,0.87
8391.00,0.87
8390.00,0.87
8389.00,0.87
8388.00,0.87
8387.00,0.87
8386.00,0.87
8385.00,0.87
8384.00,0.87
8383.00,0.87
8382.00,0.86
8381.00,0.86
8380.00,0.86
8379.00,0.86
8378.00,0.86
8377.00,0.86
8376.00,0.86
8375.00,0.86
8374.00,0.86
8373.00,0.87
8372.00,0.87
8371.00,0.87
8370.00,0.87
8369.00,0.87
8368.00,0.87
8367.00,0.87
8366.00,0.87
8365.00,0.87
8364.00,0.87
8363.00,0.87
8362.00,0.88
8361.00,0.88
8360.00,0.88
8359.00,0.88
8358.00,0.88
8357.00,0.88
8356.00,0.88
8355.00,0.88
8354.00,0.88
8353.00,0.88
8352.00,0.88
8351.00,0.88
8350.00,0.88
8349.00,0.88
8348.00,0.88
8347.00,0.88
8346.00,0.88
8345.00,0.88
8344.00,0.88
8343.00,0.88
8342.00,0.88
8341.00,0.88
8340.00,0.88
8339.00,0.88
8338.00,0.88
8337.00,0.88
8336.00,0.88
8335.00,0.88
8334.00,0.88
8333.00,0.88
8332.00,0.88
8331.00,0.88
8330.00,0.88
8329.00,0.88
8328.00,0.88
8327.00,0.88
8326.00,0.88
8325.00,0.88
8324.00,0.88
8323.00,0.88
8322.00,0.88
8321.00,0.88
8320.00,0.88
8319.00,0.88
8318.00,0.88
8317.00,0.88
8316.00,0.88
8315.00,0.88
8314.00,0.88
8313.00,0.88
8312.00,0.88
8311.00,0.88
8310.00,0.88
8309.00,0.88
8308.00,0.88
8307.00,0.88
8306.00,0.88
8305.00,0.88
8304.00,0.87
8303.00,0.87
8302.00,0.87
8301.00,0.87
8300.00,0.88
8299.00,0.88
8298.00,0.88
8297.00,0.88
8296.00,0.88
8295.00,0.88
8294.00,0.88
8293.00,0.88
8292.00,0.88
8291.00,0.88
8290.00,0.88
8289.00,0.88
8288.00,0.88
8287.00,0.88
8286.00,0.88
8285.00,0.88
8284.00,0.88
8283.00,0.88
8282.00,0.88
8281.00,0.88
8280.00,0.88
8279.00,0.88
8278.00,0.88
8277.00,0.88
8276.00,0.88
8275.00,0.88
8274.00,0.88
8273.00,0.88
8272.00,0.88
8271.00,0.88
8270.00,0.88
8269.00,0.89
8268.00,0.89
8267.00,0.89
8266.00,0.89
8265.00,0.89
8264.00,0.89
8263.00,0.89
8262.00,0.89
8261.00,0.89
8260.00,0.89
8259.00,0.89
8258.00,0.89
8257.00,0.89
8256.00,0.89
8255.00,0.89
8254.00,0.89
8253.00,0.89
8252.00,0.90
8251.00,0.90
8250.00,0.90
8249.00,0.90
8248.00,0.89
8247.00,0.89
8246.00,0.89
8245.00,0.89
8244.00,0.89
8243.00,0.89
8242.00,0.89
8241.00,0.89
8240.00,0.89
8239.00,0.89
8238.00,0.89
8237.00,0.89
8236.00,0.89
8235.00,0.89
8234.00,0.89
8233.00,0.89
8232.00,0.89
8231.00,0.89
8230.00,0.89
8229.00,0.89
8228.00,0.89
8227.00,0.89
8226.00,0.90
8225.00,0.90
8224.00,0.90
8223.00,0.90
8222.00,0.90
8221.00,0.90
8220.00,0.90
8219.00,0.90
8218.00,0.90
8217.00,0.90
8216.00,0.90
8215.00,0.90
8214.00,0.90
8213.00,0.90
8212.00,0.90
8211.00,0.90
8210.00,0.90
8209.00,0.90
8208.00,0.90
8207.00,0.90
8206.00,0.90
8205.00,0.90
8204.00,0.90
8203.00,0.90
8202.00,0.90
8201.00,0.90
8200.00,0.90
8199.00,0.90
8198.00,0.90
8197.00,0.90
8196.00,0.90
8195.00,0.90
8194.00,0.90
8193.00,0.90
8192.00,0.90
8191.00,0.90
8190.00,0.90
8189.00,0.90
8188.00,0.90
8187.00,0.90
8186.00,0.90
8185.00,0.90
8184.00,0.90
8183.00,0.90
8182.00,0.90
8181.00,0.90
8180.00,0.90
8179.00,0.90
8178.00,0.90
8177.00,0.90
8176.00,0.90
8175.00,0.90
8174.00,0.90
8173.00,0.90
8172.00,0.90
8171.00,0.90
8170.00,0.90
8169.00,0.90
8168.00,0.90
8167.00,0.90
8166.00,0.90
8165.00,0.90
8164.00,0.90
8163.00,0.90
8162.00,0.90
8161.00,0.90
8160.00,0.90
8159.00,0.90
8158.00,0.90
8157.00,0.90
8156.00,0.90
8155.00,0.90
8154.00,0.90
8153.00,0.90
8152.00,0.90
8151.00,0.90
8150.00,0.90
8149.00,0.90
8148.00,0.90
8147.00,0.91
8146.00,0.91
8145.00,0.91
8144.00,0.91
8143.00,0.91
8142.00,0.91
8141.00,0.91
8140.00,0.92
8139.00,0.92
8138.00,0.92
8137.00,0.92
8136.00,0.92
8135.00,0.92
8134.00,0.92
8133.00,0.92
8132.00,0.92
8131.00,0.92
8130.00,0.92
8129.00,0.92
8128.00,0.92
8127.00,0.92
8126.00,0.92
8125.00,0.92
8124.00,0.92
8123.00,0.92
8122.00,0.92
8121.00,0.92
8120.00,0.92
8119.00,0.92
8118.00,0.92
8117.00,0.92
8116.00,0.92
8115.00,0.92
8114.00,0.92
8113.00,0.92
8112.00,0.92
8111.00,0.92
8110.00,0.92
8109.00,0.92
8108.00,0.92
8107.00,0.92
8106.00,0.92
8105.00,0.92
8104.00,0.92
8103.00,0.92
8102.00,0.92
8101.00,0.92
8100.00,0.92
8099.00,0.92
8098.00,0.92
8097.00,0.92
8096.00,0.92
8095.00,0.92
8094.00,0.92
8093.00,0.91
8092.00,0.91
8091.00,0.91
8090.00,0.91
8089.00,0.91
8088.00,0.91
8087.00,0.91
8086.00,0.91
8085.00,0.91
8084.00,0.91
8083.00,0.91
8082.00,0.91
8081.00,0.92
8080.00,0.92
8079.00,0.92
8078.00,0.92
8077.00,0.92
8076.00,0.92
8075.00,0.92
8074.00,0.92
8073.00,0.92
8072.00,0.93
8071.00,0.93
8070.00,0.93
8069.00,0.93
8068.00,0.93
8067.00,0.93
8066.00,0.93
8065.00,0.93
8064.00,0.93
8063.00,0.93
8062.00,0.93
8061.00,0.93
8060.00,0.93
8059.00,0.93
8058.00,0.93
8057.00,0.93
8056.00,0.93
8055.00,0.93
8054.00,0.92
8053.00,0.92
8052.00,0.92
8051.00,0.92
8050.00,0.92
8049.00,0.92
8048.00,0.92
8047.00,0.92
8046.00,0.92
8045.00,0.92
8044.00,0.92
8043.00,0.92
8042.00,0.92
8041.00,0.92
8040.00,0.92
8039.00,0.92
8038.00,0.92
8037.00,0.92
8036.00,0.92
8035.00,0.92
8034.00,0.92
8033.00,0.92
8032.00,0.92
8031.00,0.92
8030.00,0.92
8029.00,0.92
8028.00,0.92
8027.00,0.92
8026.00,0.92
8025.00,0.92
8024.00,0.92
8023.00,0.92
8022.00,0.92
8021.00,0.92
8020.00,0.92
8019.00,0.92
8018.00,0.92
8017.00,0.92
8016.00,0.92
8015.00,0.92
8014.00,0.92
8013.00,0.92
8012.00,0.92
8011.00,0.92
8010.00,0.92
8009.00,0.92
8008.00,0.92
8007.00,0.92
8006.00,0.92
8005.00,0.92
8004.00,0.92
8003.00,0.92
8002.00,0.92
8001.00,0.92
8000.00,0.92
7999.00,0.93
7998.00,0.93
7997.00,0.93
7996.00,0.93
7995.00,0.93
7994.00,0.93
7993.00,0.93
7992.00,0.93
7991.00,0.93
7990.00,0.94
7989.00,0.94
7988.00,0.94
7987.00,0.94
7986.00,0.94
7985.00,0.94
7984.00,0.94
7983.00,0.94
7982.00,0.94
7981.00,0.94
7980.00,0.94
7979.00,0.94
7978.00,0.94
7977.00,0.94
7976.00,0.94
7975.00,0.94
7974.00,0.93
7973.00,0.93
7972.00,0.93
7971.00,0.93
7970.00,0.93
7969.00,0.93
7968.00,0.93
7967.00,0.93
7966.00,0.93
7965.00,0.93
7964.00,0.93
7963.00,0.93
7962.00,0.93
7961.00,0.93
7960.00,0.93
7959.00,0.93
7958.00,0.93
7957.00,0.93
7956.00,0.93
7955.00,0.93
7954.00,0.93
7953.00,0.93
7952.00,0.93
7951.00,0.93
7950.00,0.93
7949.00,0.93
7948.00,0.93
7947.00,0.93
7946.00,0.93
7945.00,0.94
7944.00,0.94
7943.00,0.94
7942.00,0.94
7941.00,0.94
7940.00,0.94
7939.00,0.94
7938.00,0.94
7937.00,0.94
7936.00,0.94
7935.00,0.94
7934.00,0.94
7933.00,0.94
7932.00,0.94
7931.00,0.94
7930.00,0.94
7929.00,0.94
7928.00,0.94
7927.00,0.94
7926.00,0.94
7925.00,0.94
7924.00,0.94
7923.00,0.94
7922.00,0.94
7921.00,0.94
7920.00,0.94
7919.00,0.94
7918.00,0.94
7917.00,0.94
7916.00,0.94
7915.00,0.94
7914.00,0.94
7913.00,0.93
7912.00,0.93
7911.00,0.93
7910.00,0.93
7909.00,0.93
7908.00,0.93
7907.00,0.93
7906.00,0.93
7905.00,0.93
7904.00,0.93
7903.00,0.93
7902.00,0.93
7901.00,0.93
7900.00,0.93
7899.00,0.93
7898.00,0.93
7897.00,0.93
7896.00,0.93
7895.00,0.93
7894.00,0.93
7893.00,0.93
7892.00,0.93
7891.00,0.93
7890.00,0.93
7889.00,0.93
7888.00,0.93
7887.00,0.93
7886.00,0.93
7885.00,0.93
7884.00,0.93
7883.00,0.93
7882.00,0.93
7881.00,0.93
7880.00,0.94
7879.00,0.94
7878.00,0.94
7877.00,0.94
7876.00,0.94
7875.00,0.94
7874.00,0.94
7873.00,0.94
7872.00,0.94
7871.00,0.94
7870.00,0.94
7869.00,0.95
7868.00,0.95
7867.00,0.95
7866.00,0.95
7865.00,0.95
7864.00,0.95
7863.00,0.95
7862.00,0.95
7861.00,0.95
7860.00,0.95
7859.00,0.95
7858.00,0.95
7857.00,0.94
7856.00,0.94
7855.00,0.94
7854.00,0.94
7853.00,0.94
7852.00,0.94
7851.00,0.94
7850.00,0.94
7849.00,0.94
7848.00,0.94
7847.00,0.94
7846.00,0.94
7845.00,0.94
7844.00,0.94
7843.00,0.94
7842.00,0.94
7841.00,0.94
7840.00,0.94
7839.00,0.94
7838.00,0.94
7837.00,0.94
7836.00,0.94
7835.00,0.94
7834.00,0.94
7833.00,0.94
7832.00,0.94
7831.00,0.94
7830.00,0.94
7829.00,0.94
7828.00,0.94
7827.00,0.94
7826.00,0.94
7825.00,0.94
7824.00,0.94
7823.00,0.94
7822.00,0.94
7821.00,0.94
7820.00,0.94
7819.00,0.94
7818.00,0.94
7817.00,0.94
7816.00,0.94
7815.00,0.94
7814.00,0.94
7813.00,0.94
7812.00,0.94
7811.00,0.94
7810.00,0.95
7809.00,0.95
7808.00,0.95
7807.00,0.95
7806.00,0.95
7805.00,0.95
7804.00,0.95
7803.00,0.95
7802.00,0.95
7801.00,0.95
7800.00,0.95
7799.00,0.95
7798.00,0.95
7797.00,0.95
7796.00,0.95
7795.00,0.95
7794.00,0.95
7793.00,0.95
7792.00,0.95
7791.00,0.95
7790.00,0.95
7789.00,0.95
7788.00,0.95
7787.00,0.95
7786.00,0.95
7785.00,0.95
7784.00,0.95
7783.00,0.95
7782.00,0.95
7781.00,0.95
7780.00,0.95
7779.00,0.95
7778.00,0.94
7777.00,0.94
7776.00,0.94
7775.00,0.94
7774.00,0.94
7773.00,0.95
7772.00,0.95
7771.00,0.95
7770.00,0.95
7769.00,0.95
7768.00,0.95
7767.00,0.95
7766.00,0.95
7765.00,0.95
7764.00,0.95
7763.00,0.95
7762.00,0.95
7761.00,0.95
7760.00,0.95
7759.00,0.95
7758.00,0.95
7757.00,0.95
7756.00,0.95
7755.00,0.95
7754.00,0.95
7753.00,0.94
7752.00,0.94
7751.00,0.94
7750.00,0.94
7749.00,0.94
7748.00,0.94
7747.00,0.94
7746.00,0.94
7745.00,0.94
7744.00,0.94
7743.00,0.94
7742.00,0.94
7741.00,0.94
7740.00,0.94
7739.00,0.94
7738.00,0.94
7737.00,0.94
7736.00,0.94
7735.00,0.95
7734.00,0.95
7733.00,0.95
7732.00,0.95
7731.00,0.95
7730.00,0.95
7729.00,0.95
7728.00,0.95
7727.00,0.95
7726.00,0.95
7725.00,0.95
7724.00,0.95
7723.00,0.95
7722.00,0.95
7721.00,0.95
7720.00,0.95
7719.00,0.95
7718.00,0.95
7717.00,0.95
7716.00,0.95
7715.00,0.95
7714.00,0.95
7713.00,0.95
7712.00,0.95
7711.00,0.95
7710.00,0.95
7709.00,0.95
7708.00,0.95
7707.00,0.95
7706.00,0.95
7705.00,0.95
7704.00,0.95
7703.00,0.94
7702.00,0.94
7701.00,0.94
7700.00,0.94
7699.00,0.94
7698.00,0.94
7697.00,0.94
7696.00,0.94
7695.00,0.94
7694.00,0.94
7693.00,0.94
7692.00,0.94
7691.00,0.94
7690.00,0.94
7689.00,0.94
7688.00,0.94
7687.00,0.94
7686.00,0.94
7685.00,0.94
7684.00,0.94
7683.00,0.94
7682.00,0.94
7681.00,0.94
7680.00,0.94
7679.00,0.94
7678.00,0.94
7677.00,0.94
7676.00,0.94
7675.00,0.94
7674.00,0.94
7673.00,0.94
7672.00,0.94
7671.00,0.95
7670.00,0.95
7669.00,0.95
7668.00,0.95
7667.00,0.95
7666.00,0.95
7665.00,0.95
7664.00,0.95
7663.00,0.95
7662.00,0.95
7661.00,0.95
7660.00,0.95
7659.00,0.95
7658.00,0.95
7657.00,0.95
7656.00,0.95
7655.00,0.95
7654.00,0.95
7653.00,0.95
7652.00,0.95
7651.00,0.95
7650.00,0.95
7649.00,0.95
7648.00,0.95
7647.00,0.94
7646.00,0.94
7645.00,0.94
7644.00,0.94
7643.00,0.94
7642.00,0.94
7641.00,0.94
7640.00,0.94
7639.00,0.94
7638.00,0.94
7637.00,0.94
7636.00,0.94
7635.00,0.94
7634.00,0.94
7633.00,0.95
7632.00,0.95
7631.00,0.95
7630.00,0.95
7629.00,0.95
7628.00,0.95
7627.00,0.95
7626.00,0.95
7625.00,0.95
7624.00,0.95
7623.00,0.95
7622.00,0.95
7621.00,0.95
7620.00,0.95
7619.00,0.95
7618.00,0.95
7617.00,0.95
7616.00,0.95
7615.00,0.95
7614.00,0.95
7613.00,0.95
7612.00,0.95
7611.00,0.95
7610.00,0.95
7609.00,0.95
7608.00,0.95
7607.00,0.95
7606.00,0.95
7605.00,0.95
7604.00,0.95
7603.00,0.95
7602.00,0.95
7601.00,0.95
7600.00,0.95
7599.00,0.95
7598.00,0.95
7597.00,0.95
7596.00,0.95
7595.00,0.95
7594.00,0.95
7593.00,0.95
7592.00,0.95
7591.00,0.95
7590.00,0.95
7589.00,0.95
7588.00,0.95
7587.00,0.95
7586.00,0.95
7585.00,0.95
7584.00,0.95
7583.00,0.95
7582.00,0.95
7581.00,0.95
7580.00,0.95
7579.00,0.94
7578.00,0.94
7577.00,0.94
7576.00,0.94
7575.00,0.94
7574.00,0.94
7573.00,0.94
7572.00,0.94
7571.00,0.94
7570.00,0.94
7569.00,0.94
7568.00,0.94
7567.00,0.94
7566.00,0.94
7565.00,0.94
7564.00,0.94
7563.00,0.94
7562.00,0.94
7561.00,0.94
7560.00,0.94
7559.00,0.94
7558.00,0.94
7557.00,0.94
7556.00,0.94
7555.00,0.94
7554.00,0.93
7553.00,0.93
7552.00,0.93
7551.00,0.93
7550.00,0.93
7549.00,0.93
7548.00,0.93
7547.00,0.93
7546.00,0.93
7545.00,0.93
7544.00,0.93
7543.00,0.93
7542.00,0.93
7541.00,0.93
7540.00,0.93
7539.00,0.93
7538.00,0.93
7537.00,0.93
7536.00,0.93
7535.00,0.93
7534.00,0.93
7533.00,0.93
7532.00,0.93
7531.00,0.93
7530.00,0.93
7529.00,0.93
7528.00,0.93
7527.00,0.93
7526.00,0.93
7525.00,0.93
7524.00,0.93
7523.00,0.93
7522.00,0.93
7521.00,0.93
7520.00,0.93
7519.00,0.93
7518.00,0.93
7517.00,0.93
7516.00,0.93
7515.00,0.93
7514.00,0.93
7513.00,0.93
7512.00,0.93
7511.00,0.93
7510.00,0.93
7509.00,0.93
7508.00,0.93
7507.00,0.93
7506.00,0.93
7505.00,0.93
7504.00,0.93
7503.00,0.93
7502.00,0.93
7501.00,0.93
7500.00,0.92
7499.00,0.92
7498.00,0.92
7497.00,0.92
7496.00,0.92
7495.00,0.92
7494.00,0.92
7493.00,0.92
7492.00,0.92
7491.00,0.92
7490.00,0.92
7489.00,0.92
7488.00,0.92
7487.00,0.92
7486.00,0.92
7485.00,0.92
7484.00,0.92
7483.00,0.92
7482.00,0.92
7481.00,0.92
7480.00,0.92
7479.00,0.92
7478.00,0.92
7477.00,0.92
7476.00,0.92
7475.00,0.92
7474.00,0.92
7473.00,0.92
7472.00,0.92
7471.00,0.92
7470.00,0.92
7469.00,0.92
7468.00,0.92
7467.00,0.92
7466.00,0.92
7465.00,0.92
7464.00,0.92
7463.00,0.92
7462.00,0.91
7461.00,0.91
7460.00,0.91
7459.00,0.91
7458.00,0.91
7457.00,0.91
7456.00,0.91
7455.00,0.91
7454.00,0.91
7453.00,0.91
7452.00,0.91
7451.00,0.91
7450.00,0.91
7449.00,0.91
7448.00,0.91
7447.00,0.91
7446.00,0.91
7445.00,0.91
7444.00,0.91
7443.00,0.91
7442.00,0.91
7441.00,0.91
7440.00,0.91
7439.00,0.91
7438.00,0.91
7437.00,0.91
7436.00,0.91
7435.00,0.91
7434.00,0.91
7433.00,0.91
7432.00,0.91
7431.00,0.91
7430.00,0.91
7429.00,0.91
7428.00,0.91
7427.00,0.91
7426.00,0.90
7425.00,0.90
7424.00,0.90
7423.00,0.90
7422.00,0.90
7421.00,0.90
7420.00,0.90
7419.00,0.90
7418.00,0.90
7417.00,0.90
7416.00,0.90
7415.00,0.90
7414.00,0.90
7413.00,0.90
7412.00,0.90
7411.00,0.90
7410.00,0.90
7409.00,0.90
7408.00,0.90
7407.00,0.90
7406.00,0.90
7405.00,0.89
7404.00,0.89
7403.00,0.89
7402.00,0.89
7401.00,0.89
7400.00,0.89
7399.00,0.89
7398.00,0.89
7397.00,0.89
7396.00,0.89
7395.00,0.89
7394.00,0.89
7393.00,0.89
7392.00,0.89
7391.00,0.89
7390.00,0.89
7389.00,0.89
7388.00,0.89
7387.00,0.89
7386.00,0.89
7385.00,0.89
7384.00,0.89
7383.00,0.89
7382.00,0.89
7381.00,0.89
7380.00,0.89
7379.00,0.89
7378.00,0.89
7377.00,0.89
7376.00,0.89
7375.00,0.89
7374.00,0.89
7373.00,0.89
7372.00,0.89
7371.00,0.89
7370.00,0.89
7369.00,0.89
7368.00,0.89
7367.00,0.89
7366.00,0.88
7365.00,0.88
7364.00,0.88
7363.00,0.88
7362.00,0.88
7361.00,0.88
7360.00,0.88
7359.00,0.88
7358.00,0.88
7357.00,0.88
7356.00,0.88
7355.00,0.88
7354.00,0.88
7353.00,0.88
7352.00,0.88
7351.00,0.88
7350.00,0.88
7349.00,0.88
7348.00,0.88
7347.00,0.88
7346.00,0.88
7345.00,0.88
7344.00,0.88
7343.00,0.88
7342.00,0.88
7341.00,0.88
7340.00,0.88
7339.00,0.88
7338.00,0.88
7337.00,0.88
7336.00,0.88
7335.00,0.88
7334.00,0.88
7333.00,0.88
7332.00,0.88
7331.00,0.88
7330.00,0.88
7329.00,0.88
7328.00,0.87
7327.00,0.87
7326.00,0.87
7325.00,0.87
7324.00,0.87
7323.00,0.87
7322.00,0.87
7321.00,0.87
7320.00,0.87
7319.00,0.87
7318.00,0.87
7317.00,0.87
7316.00,0.87
7315.00,0.86
7314.00,0.86
7313.00,0.86
7312.00,0.86
7311.00,0.86
7310.00,0.86
7309.00,0.86
7308.00,0.86
7307.00,0.86
7306.00,0.86
7305.00,0.86
7304.00,0.86
7303.00,0.86
7302.00,0.86
7301.00,0.86
7300.00,0.86
7299.00,0.86
7298.00,0.86
7297.00,0.86
7296.00,0.86
7295.00,0.86
7294.00,0.86
7293.00,0.86
7292.00,0.86
7291.00,0.86
7290.00,0.86
7289.00,0.86
7288.00,0.86
7287.00,0.86
7286.00,0.86
7285.00,0.86
7284.00,0.85
7283.00,0.85
7282.00,0.85
7281.00,0.85
7280.00,0.85
7279.00,0.85
7278.00,0.85
7277.00,0.85
7276.00,0.85
7275.00,0.85
7274.00,0.85
7273.00,0.85
7272.00,0.85
7271.00,0.84
7270.00,0.84
7269.00,0.84
7268.00,0.84
7267.00,0.84
7266.00,0.84
7265.00,0.84
7264.00,0.84
7263.00,0.84
7262.00,0.84
7261.00,0.84
7260.00,0.84
7259.00,0.84
7258.00,0.84
7257.00,0.84
7256.00,0.84
7255.00,0.84
7254.00,0.84
7253.00,0.83
7252.00,0.83
7251.00,0.83
7250.00,0.83
7249.00,0.83
7248.00,0.83
7247.00,0.83
7246.00,0.82
7245.00,0.82
7244.00,0.82
7243.00,0.82
7242.00,0.82
7241.00,0.81
7240.00,0.81
7239.00,0.81
7238.00,0.81
7237.00,0.80
7236.00,0.80
7235.00,0.80
7234.00,0.80
7233.00,0.79
7232.00,0.79
7231.00,0.79
7230.00,0.79
7229.00,0.78
7228.00,0.78
7227.00,0.78
7226.00,0.78
7225.00,0.78
7224.00,0.78
7223.00,0.77
7222.00,0.77
7221.00,0.77
7220.00,0.77
7219.00,0.77
7218.00,0.77
7217.00,0.77
7216.00,0.77
7215.00,0.76
7214.00,0.76
7213.00,0.76
7212.00,0.76
7211.00,0.76
7210.00,0.76
7209.00,0.76
7208.00,0.75
7207.00,0.75
7206.00,0.75
7205.00,0.75
7204.00,0.74
7203.00,0.74
7202.00,0.74
7201.00,0.74
7200.00,0.73
7199.00,0.73
7198.00,0.73
7197.00,0.73
7196.00,0.73
7195.00,0.72
7194.00,0.72
7193.00,0.72
7192.00,0.72
7191.00,0.72
7190.00,0.71
7189.00,0.71
7188.00,0.71
7187.00,0.71
7186.00,0.71
7185.00,0.70
7184.00,0.70
7183.00,0.70
7182.00,0.70
7181.00,0.70
7180.00,0.70
7179.00,0.69
7178.00,0.69
7177.00,0.69
7176.00,0.69
7175.00,0.68
7174.00,0.68
7173.00,0.68
7172.00,0.68
7171.00,0.67
7170.00,0.67
7169.00,0.67
7168.00,0.66
7167.00,0.66
7166.00,0.66
7165.00,0.66
7164.00,0.65
7163.00,0.65
7162.00,0.65
7161.00,0.65
7160.00,0.65
7159.00,0.65
7158.00,0.65
7157.00,0.64
7156.00,0.64
7155.00,0.64
7154.00,0.64
7153.00,0.64
7152.00,0.64
7151.00,0.64
7150.00,0.64
7149.00,0.64
7148.00,0.64
7147.00,0.64
7146.00,0.63
7145.00,0.63
7144.00,0.63
7143.00,0.63
7142.00,0.63
7141.00,0.63
7140.00,0.62
7139.00,0.62
7138.00,0.62
7137.00,0.62
7136.00,0.62
7135.00,0.62
7134.00,0.61
7133.00,0.61
7132.00,0.61
7131.00,0.61
7130.00,0.61
7129.00,0.61
7128.00,0.60
7127.00,0.60
7126.00,0.60
7125.00,0.60
7124.00,0.60
7123.00,0.60
7122.00,0.59
7121.00,0.59
7120.00,0.59
7119.00,0.59
7118.00,0.59
7117.00,0.59
7116.00,0.59
7115.00,0.58
7114.00,0.58
7113.00,0.58
7112.00,0.58
7111.00,0.58
7110.00,0.58
7109.00,0.58
7108.00,0.58
7107.00,0.58
7106.00,0.57
7105.00,0.57
7104.00,0.57
7103.00,0.57
7102.00,0.57
7101.00,0.57
7100.00,0.57
7099.00,0.57
7098.00,0.56
7097.00,0.56
7096.00,0.56
7095.00,0.56
7094.00,0.56
7093.00,0.56
7092.00,0.56
7091.00,0.56
7090.00,0.56
7089.00,0.56
7088.00,0.55
7087.00,0.55
7086.00,0.55
7085.00,0.55
7084.00,0.55
7083.00,0.55
7082.00,0.55
7081.00,0.55
7080.00,0.55
7079.00,0.54
7078.00,0.54
7077.00,0.54
7076.00,0.54
7075.00,0.54
7074.00,0.54
7073.00,0.54
7072.00,0.54
7071.00,0.54
7070.00,0.54
7069.00,0.54
7068.00,0.54
7067.00,0.54
7066.00,0.54
7065.00,0.54
7064.00,0.53
7063.00,0.53
7062.00,0.53
7061.00,0.53
7060.00,0.53
7059.00,0.53
7058.00,0.53
7057.00,0.53
7056.00,0.53
7055.00,0.53
7054.00,0.53
7053.00,0.52
7052.00,0.52
7051.00,0.52
7050.00,0.52
7049.00,0.52
7048.00,0.52
7047.00,0.52
7046.00,0.52
7045.00,0.52
7044.00,0.52
7043.00,0.51
7042.00,0.51
7041.00,0.51
7040.00,0.51
7039.00,0.51
7038.00,0.51
7037.00,0.51
7036.00,0.51
7035.00,0.51
7034.00,0.51
7033.00,0.51
7032.00,0.51
7031.00,0.51
7030.00,0.50
7029.00,0.50
7028.00,0.50
7027.00,0.50
7026.00,0.50
7025.00,0.50
7024.00,0.50
7023.00,0.50
7022.00,0.50
7021.00,0.50
7020.00,0.50
7019.00,0.50
7018.00,0.50
7017.00,0.50
7016.00,0.50
7015.00,0.50
7014.00,0.50
7013.00,0.50
7012.00,0.50
7011.00,0.50
7010.00,0.50
7009.00,0.49
7008.00,0.49
7007.00,0.49
7006.00,0.49
7005.00,0.49
7004.00,0.49
7003.00,0.49
7002.00,0.49
7001.00,0.49
7000.00,0.49
6999.00,0.49
6998.00,0.49
6997.00,0.49
6996.00,0.49
6995.00,0.49
6994.00,0.49
6993.00,0.49
6992.00,0.49
6991.00,0.49
6990.00,0.49
6989.00,0.49
6988.00,0.49
6987.00,0.49
6986.00,0.49
6985.00,0.49
6984.00,0.49
6983.00,0.49
6982.00,0.49
6981.00,0.49
6980.00,0.49
6979.00,0.49
6978.00,0.49
6977.00,0.49
6976.00,0.49
6975.00,0.49
6974.00,0.49
6973.00,0.49
6972.00,0.49
6971.00,0.49
6970.00,0.49
6969.00,0.49
6968.00,0.49
6967.00,0.49
6966.00,0.49
6965.00,0.49
6964.00,0.49
6963.00,0.49
6962.00,0.49
6961.00,0.49
6960.00,0.49
6959.00,0.49
6958.00,0.49
6957.00,0.49
6956.00,0.49
6955.00,0.48
6954.00,0.48
6953.00,0.48
6952.00,0.48
6951.00,0.48
6950.00,0.48
6949.00,0.48
6948.00,0.48
6947.00,0.48
6946.00,0.48
6945.00,0.48
6944.00,0.48
6943.00,0.48
6942.00,0.48
6941.00,0.48
6940.00,0.48
6939.00,0.48
6938.00,0.48
6937.00,0.48
6936.00,0.48
6935.00,0.48
6934.00,0.48
6933.00,0.48
6932.00,0.48
6931.00,0.48
6930.00,0.48
6929.00,0.48
6928.00,0.48
6927.00,0.48
6926.00,0.48
6925.00,0.48
6924.00,0.48
6923.00,0.48
6922.00,0.48
6921.00,0.48
6920.00,0.48
6919.00,0.48
6918.00,0.48
6917.00,0.48
6916.00,0.48
6915.00,0.48
6914.00,0.48
6913.00,0.48
6912.00,0.48
6911.00,0.48
6910.00,0.48
6909.00,0.48
6908.00,0.48
6907.00,0.48
6906.00,0.48
6905.00,0.48
6904.00,0.48
6903.00,0.48
6902.00,0.48
6901.00,0.48
6900.00,0.48
6899.00,0.48
6898.00,0.48
6897.00,0.48
6896.00,0.48
6895.00,0.48
6894.00,0.48
6893.00,0.48
6892.00,0.48
6891.00,0.48
6890.00,0.48
6889.00,0.48
6888.00,0.48
6887.00,0.48
6886.00,0.48
6885.00,0.48
6884.00,0.48
6883.00,0.48
6882.00,0.48
6881.00,0.48
6880.00,0.48
6879.00,0.48
6878.00,0.48
6877.00,0.48
6876.00,0.48
6875.00,0.48
6874.00,0.48
6873.00,0.48
6872.00,0.48
6871.00,0.48
6870.00,0.48
6869.00,0.48
6868.00,0.48
6867.00,0.48
6866.00,0.48
6865.00,0.48
6864.00,0.48
6863.00,0.48
6862.00,0.48
6861.00,0.48
6860.00,0.48
6859.00,0.48
6858.00,0.48
6857.00,0.48
6856.00,0.48
6855.00,0.48
6854.00,0.48
6853.00,0.48
6852.00,0.48
6851.00,0.48
6850.00,0.48
6849.00,0.48
6848.00,0.48
6847.00,0.48
6846.00,0.48
6845.00,0.48
6844.00,0.48
6843.00,0.48
6842.00,0.48
6841.00,0.48
6840.00,0.48
6839.00,0.48
6838.00,0.48
6837.00,0.48
6836.00,0.48
6835.00,0.48
6834.00,0.48
6833.00,0.48
6832.00,0.48
6831.00,0.48
6830.00,0.48
6829.00,0.48
6828.00,0.48
6827.00,0.48
6826.00,0.48
6825.00,0.48
6824.00,0.48
6823.00,0.48
6822.00,0.48
6821.00,0.48
6820.00,0.48
6819.00,0.48
6818.00,0.48
6817.00,0.48
6816.00,0.48
6815.00,0.48
6814.00,0.48
6813.00,0.48
6812.00,0.48
6811.00,0.48
6810.00,0.48
6809.00,0.48
6808.00,0.48
6807.00,0.48
6806.00,0.48
6805.00,0.48
6804.00,0.49
6803.00,0.49
6802.00,0.49
6801.00,0.49
6800.00,0.49
6799.00,0.49
6798.00,0.49
6797.00,0.49
6796.00,0.49
6795.00,0.49
6794.00,0.49
6793.00,0.49
6792.00,0.49
6791.00,0.49
6790.00,0.49
6789.00,0.49
6788.00,0.49
6787.00,0.49
6786.00,0.49
6785.00,0.49
6784.00,0.50
6783.00,0.50
6782.00,0.50
6781.00,0.50
6780.00,0.50
6779.00,0.50
6778.00,0.50
6777.00,0.50
6776.00,0.50
6775.00,0.50
6774.00,0.50
6773.00,0.50
6772.00,0.50
6771.00,0.50
6770.00,0.50
6769.00,0.50
6768.00,0.50
6767.00,0.50
6766.00,0.50
6765.00,0.50
6764.00,0.50
6763.00,0.50
6762.00,0.50
6761.00,0.50
6760.00,0.50
6759.00,0.50
6758.00,0.50
6757.00,0.50
6756.00,0.50
6755.00,0.50
6754.00,0.50
6753.00,0.50
6752.00,0.50
6751.00,0.51
6750.00,0.51
6749.00,0.51
6748.00,0.51
6747.00,0.51
6746.00,0.51
6745.00,0.51
6744.00,0.51
6743.00,0.51
6742.00,0.51
6741.00,0.51
6740.00,0.51
6739.00,0.51
6738.00,0.51
6737.00,0.51
6736.00,0.51
6735.00,0.51
6734.00,0.51
6733.00,0.51
6732.00,0.51
6731.00,0.51
6730.00,0.51
6729.00,0.51
6728.00,0.51
6727.00,0.51
6726.00,0.51
6725.00,0.51
6724.00,0.51
6723.00,0.51
6722.00,0.51
6721.00,0.51
6720.00,0.52
6719.00,0.52
6718.00,0.52
6717.00,0.52
6716.00,0.52
6715.00,0.52
6714.00,0.52
6713.00,0.52
6712.00,0.52
6711.00,0.52
6710.00,0.53
6709.00,0.53
6708.00,0.53
6707.00,0.53
6706.00,0.53
6705.00,0.53
6704.00,0.53
6703.00,0.53
6702.00,0.53
6701.00,0.53
6700.00,0.53
6699.00,0.53
6698.00,0.53
6697.00,0.53
6696.00,0.53
6695.00,0.53
6694.00,0.53
6693.00,0.53
6692.00,0.53
6691.00,0.53
6690.00,0.53
6689.00,0.53
6688.00,0.53
6687.00,0.53
6686.00,0.54
6685.00,0.54
6684.00,0.54
6683.00,0.54
6682.00,0.54
6681.00,0.54
6680.00,0.54
6679.00,0.54
6678.00,0.54
6677.00,0.54
6676.00,0.54
6675.00,0.54
6674.00,0.54
6673.00,0.54
6672.00,0.54
6671.00,0.54
6670.00,0.54
6669.00,0.54
6668.00,0.54
6667.00,0.54
6666.00,0.55
6665.00,0.55
6664.00,0.55
6663.00,0.55
6662.00,0.55
6661.00,0.55
6660.00,0.55
6659.00,0.55
6658.00,0.55
6657.00,0.55
6656.00,0.55
6655.00,0.55
6654.00,0.55
6653.00,0.55
6652.00,0.55
6651.00,0.55
6650.00,0.55
6649.00,0.56
6648.00,0.56
6647.00,0.56
6646.00,0.56
6645.00,0.56
6644.00,0.56
6643.00,0.56
6642.00,0.56
6641.00,0.56
6640.00,0.56
6639.00,0.56
6638.00,0.56
6637.00,0.56
6636.00,0.56
6635.00,0.57
6634.00,0.57
6633.00,0.57
6632.00,0.57
6631.00,0.57
6630.00,0.57
6629.00,0.57
6628.00,0.57
6627.00,0.57
6626.00,0.57
6625.00,0.57
6624.00,0.57
6623.00,0.57
6622.00,0.57
6621.00,0.57
6620.00,0.57
6619.00,0.57
6618.00,0.57
6617.00,0.57
6616.00,0.57
6615.00,0.58
6614.00,0.58
6613.00,0.58
6612.00,0.58
6611.00,0.58
6610.00,0.58
6609.00,0.58
6608.00,0.58
6607.00,0.58
6606.00,0.58
6605.00,0.58
6604.00,0.58
6603.00,0.58
6602.00,0.58
6601.00,0.59
6600.00,0.59
6599.00,0.59
6598.00,0.59
6597.00,0.59
6596.00,0.59
6595.00,0.59
6594.00,0.59
6593.00,0.59
6592.00,0.59
6591.00,0.59
6590.00,0.59
6589.00,0.59
6588.00,0.59
6587.00,0.59
6586.00,0.59
6585.00,0.59
6584.00,0.60
6583.00,0.60
6582.00,0.60
6581.00,0.60
6580.00,0.60
6579.00,0.60
6578.00,0.60
6577.00,0.60
6576.00,0.60
6575.00,0.60
6574.00,0.60
6573.00,0.60
6572.00,0.60
6571.00,0.60
6570.00,0.60
6569.00,0.60
6568.00,0.60
6567.00,0.60
6566.00,0.61
6565.00,0.61
6564.00,0.61
6563.00,0.61
6562.00,0.61
6561.00,0.61
6560.00,0.61
6559.00,0.61
6558.00,0.61
6557.00,0.61
6556.00,0.61
6555.00,0.62
6554.00,0.62
6553.00,0.62
6552.00,0.62
6551.00,0.62
6550.00,0.62
6549.00,0.62
6548.00,0.62
6547.00,0.62
6546.00,0.62
6545.00,0.62
6544.00,0.62
6543.00,0.62
6542.00,0.62
6541.00,0.62
6540.00,0.62
6539.00,0.62
6538.00,0.62
6537.00,0.62
6536.00,0.62
6535.00,0.62
6534.00,0.62
6533.00,0.62
6532.00,0.62
6531.00,0.63
6530.00,0.63
6529.00,0.63
6528.00,0.63
6527.00,0.63
6526.00,0.63
6525.00,0.63
6524.00,0.63
6523.00,0.63
6522.00,0.63
6521.00,0.63
6520.00,0.63
6519.00,0.63
6518.00,0.64
6517.00,0.64
6516.00,0.64
6515.00,0.64
6514.00,0.64
6513.00,0.64
6512.00,0.64
6511.00,0.64
6510.00,0.64
6509.00,0.64
6508.00,0.64
6507.00,0.64
6506.00,0.64
6505.00,0.64
6504.00,0.64
6503.00,0.64
6502.00,0.64
6501.00,0.64
6500.00,0.64
6499.00,0.64
6498.00,0.64
6497.00,0.64
6496.00,0.64
6495.00,0.64
6494.00,0.64
6493.00,0.65
6492.00,0.65
6491.00,0.65
6490.00,0.65
6489.00,0.65
6488.00,0.65
6487.00,0.65
6486.00,0.65
6485.00,0.65
6484.00,0.65
6483.00,0.65
6482.00,0.65
6481.00,0.65
6480.00,0.65
6479.00,0.65
6478.00,0.65
6477.00,0.65
6476.00,0.66
6475.00,0.66
6474.00,0.66
6473.00,0.66
6472.00,0.66
6471.00,0.66
6470.00,0.66
6469.00,0.66
6468.00,0.66
6467.00,0.66
6466.00,0.66
6465.00,0.66
6464.00,0.66
6463.00,0.66
6462.00,0.66
6461.00,0.66
6460.00,0.66
6459.00,0.66
6458.00,0.66
6457.00,0.66
6456.00,0.66
6455.00,0.66
6454.00,0.66
6453.00,0.66
6452.00,0.66
6451.00,0.67
6450.00,0.67
6449.00,0.67
6448.00,0.67
6447.00,0.67
6446.00,0.67
6445.00,0.67
6444.00,0.67
6443.00,0.67
6442.00,0.67
6441.00,0.67
6440.00,0.67
6439.00,0.67
6438.00,0.67
6437.00,0.67
6436.00,0.67
6435.00,0.67
6434.00,0.67
6433.00,0.67
6432.00,0.67
6431.00,0.67
6430.00,0.67
6429.00,0.68
6428.00,0.68
6427.00,0.68
6426.00,0.68
6425.00,0.68
6424.00,0.68
6423.00,0.68
6422.00,0.68
6421.00,0.68
6420.00,0.68
6419.00,0.68
6418.00,0.68
6417.00,0.68
6416.00,0.68
6415.00,0.68
6414.00,0.68
6413.00,0.68
6412.00,0.68
6411.00,0.68
6410.00,0.68
6409.00,0.68
6408.00,0.68
6407.00,0.68
6406.00,0.69
6405.00,0.69
6404.00,0.69
6403.00,0.69
6402.00,0.69
6401.00,0.69
6400.00,0.69
6399.00,0.69
6398.00,0.69
6397.00,0.69
6396.00,0.69
6395.00,0.70
6394.00,0.70
6393.00,0.70
6392.00,0.70
6391.00,0.70
6390.00,0.70
6389.00,0.70
6388.00,0.70
6387.00,0.70
6386.00,0.70
6385.00,0.70
6384.00,0.70
6383.00,0.70
6382.00,0.70
6381.00,0.70
6380.00,0.70
6379.00,0.70
6378.00,0.70
6377.00,0.70
6376.00,0.70
6375.00,0.70
6374.00,0.70
6373.00,0.70
6372.00,0.70
6371.00,0.70
6370.00,0.70
6369.00,0.70
6368.00,0.70
6367.00,0.70
6366.00,0.70
6365.00,0.71
6364.00,0.71
6363.00,0.71
6362.00,0.71
6361.00,0.71
6360.00,0.71
6359.00,0.71
6358.00,0.71
6357.00,0.71
6356.00,0.71
6355.00,0.71
6354.00,0.71
6353.00,0.71
6352.00,0.71
6351.00,0.71
6350.00,0.71
6349.00,0.71
6348.00,0.71
6347.00,0.72
6346.00,0.72
6345.00,0.72
6344.00,0.72
6343.00,0.72
6342.00,0.72
6341.00,0.72
6340.00,0.72
6339.00,0.72
6338.00,0.72
6337.00,0.72
6336.00,0.72
6335.00,0.72
6334.00,0.72
6333.00,0.72
6332.00,0.72
6331.00,0.72
6330.00,0.72
6329.00,0.72
6328.00,0.72
6327.00,0.72
6326.00,0.73
6325.00,0.73
6324.00,0.73
6323.00,0.73
6322.00,0.73
6321.00,0.73
6320.00,0.73
6319.00,0.73
6318.00,0.73
6317.00,0.73
6316.00,0.73
6315.00,0.73
6314.00,0.73
6313.00,0.73
6312.00,0.73
6311.00,0.73
6310.00,0.73
6309.00,0.73
6308.00,0.73
6307.00,0.74
6306.00,0.74
6305.00,0.74
6304.00,0.74
6303.00,0.74
6302.00,0.74
6301.00,0.74
6300.00,0.74
6299.00,0.74
6298.00,0.74
6297.00,0.74
6296.00,0.75
6295.00,0.75
6294.00,0.75
6293.00,0.75
6292.00,0.75
6291.00,0.75
6290.00,0.75
6289.00,0.75
6288.00,0.75
6287.00,0.75
6286.00,0.75
6285.00,0.75
6284.00,0.75
6283.00,0.76
6282.00,0.76
6281.00,0.76
6280.00,0.76
6279.00,0.76
6278.00,0.76
6277.00,0.76
6276.00,0.76
6275.00,0.76
6274.00,0.76
6273.00,0.76
6272.00,0.76
6271.00,0.76
6270.00,0.76
6269.00,0.76
6268.00,0.76
6267.00,0.76
6266.00,0.76
6265.00,0.76
6264.00,0.76
6263.00,0.76
6262.00,0.76
6261.00,0.77
6260.00,0.77
6259.00,0.77
6258.00,0.77
6257.00,0.77
6256.00,0.77
6255.00,0.77
6254.00,0.77
6253.00,0.77
6252.00,0.77
6251.00,0.77
6250.00,0.77
6249.00,0.77
6248.00,0.78
6247.00,0.78
6246.00,0.78
6245.00,0.78
6244.00,0.78
6243.00,0.78
6242.00,0.78
6241.00,0.78
6240.00,0.78
6239.00,0.78
6238.00,0.78
6237.00,0.78
6236.00,0.78
6235.00,0.78
6234.00,0.78
6233.00,0.78
6232.00,0.79
6231.00,0.79
6230.00,0.79
6229.00,0.79
6228.00,0.79
6227.00,0.79
6226.00,0.79
6225.00,0.79
6224.00,0.79
6223.00,0.79
6222.00,0.79
6221.00,0.79
6220.00,0.79
6219.00,0.79
6218.00,0.80
6217.00,0.80
6216.00,0.80
6215.00,0.80
6214.00,0.80
6213.00,0.80
6212.00,0.80
6211.00,0.80
6210.00,0.80
6209.00,0.80
6208.00,0.80
6207.00,0.80
6206.00,0.80
6205.00,0.81
6204.00,0.81
6203.00,0.81
6202.00,0.81
6201.00,0.81
6200.00,0.81
6199.00,0.81
6198.00,0.81
6197.00,0.81
6196.00,0.81
6195.00,0.81
6194.00,0.81
6193.00,0.82
6192.00,0.82
6191.00,0.82
6190.00,0.82
6189.00,0.82
6188.00,0.82
6187.00,0.82
6186.00,0.82
6185.00,0.82
6184.00,0.82
6183.00,0.82
6182.00,0.82
6181.00,0.82
6180.00,0.82
6179.00,0.83
6178.00,0.83
6177.00,0.83
6176.00,0.83
6175.00,0.83
6174.00,0.83
6173.00,0.83
6172.00,0.83
6171.00,0.83
6170.00,0.83
6169.00,0.83
6168.00,0.83
6167.00,0.84
6166.00,0.84
6165.00,0.84
6164.00,0.84
6163.00,0.84
6162.00,0.84
6161.00,0.84
6160.00,0.84
6159.00,0.84
6158.00,0.84
6157.00,0.84
6156.00,0.84
6155.00,0.84
6154.00,0.84
6153.00,0.84
6152.00,0.85
6151.00,0.85
6150.00,0.85
6149.00,0.85
6148.00,0.85
6147.00,0.85
6146.00,0.85
6145.00,0.85
6144.00,0.85
6143.00,0.85
6142.00,0.85
6141.00,0.85
6140.00,0.85
6139.00,0.85
6138.00,0.85
6137.00,0.85
6136.00,0.86
6135.00,0.86
6134.00,0.86
6133.00,0.86
6132.00,0.86
6131.00,0.86
6130.00,0.86
6129.00,0.86
6128.00,0.86
6127.00,0.86
6126.00,0.86
6125.00,0.86
6124.00,0.86
6123.00,0.86
6122.00,0.86
6121.00,0.86
6120.00,0.86
6119.00,0.86
6118.00,0.87
6117.00,0.87
6116.00,0.87
6115.00,0.87
6114.00,0.87
6113.00,0.87
6112.00,0.87
6111.00,0.87
6110.00,0.87
6109.00,0.87
6108.00,0.87
6107.00,0.87
6106.00,0.88
6105.00,0.88
6104.00,0.88
6103.00,0.88
6102.00,0.88
6101.00,0.88
6100.00,0.88
6099.00,0.88
6098.00,0.88
6097.00,0.88
6096.00,0.88
6095.00,0.89
6094.00,0.89
6093.00,0.89
6092.00,0.89
6091.00,0.89
6090.00,0.89
6089.00,0.89
6088.00,0.89
6087.00,0.89
6086.00,0.89
6085.00,0.89
6084.00,0.89
6083.00,0.89
6082.00,0.89
6081.00,0.89
6080.00,0.90
6079.00,0.90
6078.00,0.90
6077.00,0.90
6076.00,0.90
6075.00,0.90
6074.00,0.90
6073.00,0.90
6072.00,0.90
6071.00,0.90
6070.00,0.90
6069.00,0.90
6068.00,0.90
6067.00,0.91
6066.00,0.91
6065.00,0.91
6064.00,0.91
6063.00,0.91
6062.00,0.91
6061.00,0.91
6060.00,0.91
6059.00,0.91
6058.00,0.91
6057.00,0.91
6056.00,0.91
6055.00,0.91
6054.00,0.91
6053.00,0.91
6052.00,0.91
6051.00,0.91
6050.00,0.91
6049.00,0.91
6048.00,0.91
6047.00,0.91
6046.00,0.91
6045.00,0.91
6044.00,0.91
6043.00,0.91
6042.00,0.91
6041.00,0.91
6040.00,0.91
6039.00,0.91
6038.00,0.91
6037.00,0.91
6036.00,0.91
6035.00,0.91
6034.00,0.91
6033.00,0.91
6032.00,0.91
6031.00,0.92
6030.00,0.92
6029.00,0.92
6028.00,0.92
6027.00,0.92
6026.00,0.92
6025.00,0.92
6024.00,0.92
6023.00,0.92
6022.00,0.92
6021.00,0.92
6020.00,0.92
6019.00,0.92
6018.00,0.92
6017.00,0.92
6016.00,0.92
6015.00,0.92
6014.00,0.92
6013.00,0.92
6012.00,0.92
6011.00,0.92
6010.00,0.92
6009.00,0.92
6008.00,0.92
6007.00,0.92
6006.00,0.92
6005.00,0.92
6004.00,0.92
6003.00,0.92
6002.00,0.92
6001.00,0.92
6000.00,0.92
5999.00,0.92
5998.00,0.92
5997.00,0.91
5996.00,0.91
5995.00,0.91
5994.00,0.91
5993.00,0.91
5992.00,0.91
5991.00,0.91
5990.00,0.91
5989.00,0.91
5988.00,0.91
5987.00,0.91
5986.00,0.91
5985.00,0.91
5984.00,0.91
5983.00,0.90
5982.00,0.90
5981.00,0.90
5980.00,0.90
5979.00,0.90
5978.00,0.90
5977.00,0.90
5976.00,0.89
5975.00,0.89
5974.00,0.89
5973.00,0.89
5972.00,0.89
5971.00,0.88
5970.00,0.88
5969.00,0.88
5968.00,0.87
5967.00,0.87
5966.00,0.87
5965.00,0.86
5964.00,0.86
5963.00,0.86
5962.00,0.85
5961.00,0.85
5960.00,0.85
5959.00,0.85
5958.00,0.84
5957.00,0.84
5956.00,0.84
5955.00,0.83
5954.00,0.83
5953.00,0.83
5952.00,0.83
5951.00,0.83
5950.00,0.82
5949.00,0.82
5948.00,0.82
5947.00,0.82
5946.00,0.82
5945.00,0.82
5944.00,0.82
5943.00,0.81
5942.00,0.81
5941.00,0.81
5940.00,0.81
5939.00,0.81
5938.00,0.81
5937.00,0.81
5936.00,0.81
5935.00,0.81
5934.00,0.81
5933.00,0.81
5932.00,0.80
5931.00,0.80
5930.00,0.80
5929.00,0.80
5928.00,0.80
5927.00,0.80
5926.00,0.80
5925.00,0.80
5924.00,0.80
5923.00,0.80
5922.00,0.80
5921.00,0.79
5920.00,0.79
5919.00,0.79
5918.00,0.79
5917.00,0.79
5916.00,0.79
5915.00,0.79
5914.00,0.79
5913.00,0.79
5912.00,0.78
5911.00,0.78
5910.00,0.78
5909.00,0.78
5908.00,0.78
5907.00,0.78
5906.00,0.78
5905.00,0.78
5904.00,0.78
5903.00,0.78
5902.00,0.78
5901.00,0.78
5900.00,0.78
5899.00,0.78
5898.00,0.78
5897.00,0.78
5896.00,0.78
5895.00,0.78
5894.00,0.79
5893.00,0.79
5892.00,0.79
5891.00,0.79
5890.00,0.79
5889.00,0.79
5888.00,0.79
5887.00,0.80
5886.00,0.80
5885.00,0.80
5884.00,0.80
5883.00,0.80
5882.00,0.80
5881.00,0.81
5880.00,0.81
5879.00,0.81
5878.00,0.81
5877.00,0.81
5876.00,0.81
5875.00,0.81
5874.00,0.81
5873.00,0.82
5872.00,0.82
5871.00,0.82
5870.00,0.82
5869.00,0.82
5868.00,0.82
5867.00,0.82
5866.00,0.82
5865.00,0.82
5864.00,0.82
5863.00,0.82
5862.00,0.83
5861.00,0.83
5860.00,0.83
5859.00,0.83
5858.00,0.83
5857.00,0.83
5856.00,0.83
5855.00,0.83
5854.00,0.83
5853.00,0.83
5852.00,0.83
5851.00,0.84
5850.00,0.84
5849.00,0.84
5848.00,0.84
5847.00,0.84
5846.00,0.84
5845.00,0.84
5844.00,0.84
5843.00,0.84
5842.00,0.84
5841.00,0.84
5840.00,0.84
5839.00,0.84
5838.00,0.84
5837.00,0.84
5836.00,0.84
5835.00,0.84
5834.00,0.84
5833.00,0.84
5832.00,0.84
5831.00,0.84
5830.00,0.84
5829.00,0.84
5828.00,0.84
5827.00,0.84
5826.00,0.84
5825.00,0.84
5824.00,0.84
5823.00,0.84
5822.00,0.84
5821.00,0.84
5820.00,0.84
5819.00,0.84
5818.00,0.84
5817.00,0.84
5816.00,0.84
5815.00,0.84
5814.00,0.84
5813.00,0.84
5812.00,0.84
5811.00,0.84
5810.00,0.84
5809.00,0.84
5808.00,0.84
5807.00,0.84
5806.00,0.84
5805.00,0.84
5804.00,0.84
5803.00,0.83
5802.00,0.83
5801.00,0.83
5800.00,0.83
5799.00,0.83
5798.00,0.83
5797.00,0.83
5796.00,0.83
5795.00,0.83
5794.00,0.83
5793.00,0.83
5792.00,0.82
5791.00,0.82
5790.00,0.82
5789.00,0.82
5788.00,0.82
5787.00,0.82
5786.00,0.82
5785.00,0.81
5784.00,0.81
5783.00,0.81
5782.00,0.81
5781.00,0.81
5780.00,0.81
5779.00,0.81
5778.00,0.81
5777.00,0.81
5776.00,0.81
5775.00,0.81
5774.00,0.81
5773.00,0.81
5772.00,0.81
5771.00,0.81
5770.00,0.81
5769.00,0.81
5768.00,0.81
5767.00,0.81
5766.00,0.81
5765.00,0.81
5764.00,0.81
5763.00,0.81
5762.00,0.81
5761.00,0.81
5760.00,0.82
5759.00,0.82
5758.00,0.82
5757.00,0.82
5756.00,0.82
5755.00,0.82
5754.00,0.82
5753.00,0.83
5752.00,0.83
5751.00,0.83
5750.00,0.83
5749.00,0.83
5748.00,0.83
5747.00,0.83
5746.00,0.83
5745.00,0.84
5744.00,0.84
5743.00,0.84
5742.00,0.84
5741.00,0.84
5740.00,0.84
5739.00,0.84
5738.00,0.84
5737.00,0.85
5736.00,0.85
5735.00,0.85
5734.00,0.85
5733.00,0.85
5732.00,0.85
5731.00,0.85
5730.00,0.85
5729.00,0.85
5728.00,0.85
5727.00,0.85
5726.00,0.85
5725.00,0.85
5724.00,0.85
5723.00,0.85
5722.00,0.85
5721.00,0.85
5720.00,0.85
5719.00,0.85
5718.00,0.85
5717.00,0.85
5716.00,0.85
5715.00,0.85
5714.00,0.85
5713.00,0.85
5712.00,0.85
5711.00,0.85
5710.00,0.85
5709.00,0.85
5708.00,0.85
5707.00,0.85
5706.00,0.85
5705.00,0.85
5704.00,0.85
5703.00,0.85
5702.00,0.84
5701.00,0.84
5700.00,0.84
5699.00,0.84
5698.00,0.84
5697.00,0.84
5696.00,0.84
5695.00,0.84
5694.00,0.84
5693.00,0.84
5692.00,0.84
5691.00,0.84
5690.00,0.84
5689.00,0.84
5688.00,0.84
5687.00,0.84
5686.00,0.84
5685.00,0.84
5684.00,0.84
5683.00,0.84
5682.00,0.83
5681.00,0.83
5680.00,0.83
5679.00,0.83
5678.00,0.83
5677.00,0.83
5676.00,0.83
5675.00,0.83
5674.00,0.83
5673.00,0.83
5672.00,0.83
5671.00,0.83
5670.00,0.83
5669.00,0.83
5668.00,0.83
5667.00,0.83
5666.00,0.83
5665.00,0.83
5664.00,0.83
5663.00,0.83
5662.00,0.83
5661.00,0.83
5660.00,0.83
5659.00,0.83
5658.00,0.83
5657.00,0.84
5656.00,0.84
5655.00,0.84
5654.00,0.84
5653.00,0.84
5652.00,0.84
5651.00,0.84
5650.00,0.84
5649.00,0.84
5648.00,0.84
5647.00,0.84
5646.00,0.84
5645.00,0.84
5644.00,0.85
5643.00,0.85
5642.00,0.85
5641.00,0.85
5640.00,0.85
5639.00,0.85
5638.00,0.85
5637.00,0.85
5636.00,0.85
5635.00,0.85
5634.00,0.85
5633.00,0.85
5632.00,0.85
5631.00,0.85
5630.00,0.86
5629.00,0.86
5628.00,0.86
5627.00,0.86
5626.00,0.86
5625.00,0.86
5624.00,0.86
5623.00,0.86
5622.00,0.86
5621.00,0.86
5620.00,0.86
5619.00,0.86
5618.00,0.86
5617.00,0.86
5616.00,0.86
5615.00,0.86
5614.00,0.87
5613.00,0.87
5612.00,0.87
5611.00,0.87
5610.00,0.87
5609.00,0.87
5608.00,0.87
5607.00,0.87
5606.00,0.87
5605.00,0.87
5604.00,0.87
5603.00,0.87
5602.00,0.87
5601.00,0.87
5600.00,0.87
5599.00,0.87
5598.00,0.88
5597.00,0.88
5596.00,0.88
5595.00,0.88
5594.00,0.88
5593.00,0.88
5592.00,0.88
5591.00,0.88
5590.00,0.88
5589.00,0.88
5588.00,0.88
5587.00,0.88
5586.00,0.89
5585.00,0.89
5584.00,0.89
5583.00,0.89
5582.00,0.89
5581.00,0.89
5580.00,0.89
5579.00,0.89
5578.00,0.89
5577.00,0.89
5576.00,0.89
5575.00,0.89
5574.00,0.89
5573.00,0.89
5572.00,0.90
5571.00,0.90
5570.00,0.90
5569.00,0.90
5568.00,0.90
5567.00,0.90
5566.00,0.90
5565.00,0.90
5564.00,0.90
5563.00,0.90
5562.00,0.90
5561.00,0.90
5560.00,0.90
5559.00,0.90
5558.00,0.91
5557.00,0.91
5556.00,0.91
5555.00,0.91
5554.00,0.91
5553.00,0.91
5552.00,0.91
5551.00,0.91
5550.00,0.91
5549.00,0.91
5548.00,0.91
5547.00,0.91
5546.00,0.91
5545.00,0.91
5544.00,0.91
5543.00,0.91
5542.00,0.91
5541.00,0.91
5540.00,0.91
5539.00,0.91
5538.00,0.91
5537.00,0.91
5536.00,0.91
5535.00,0.91
5534.00,0.91
5533.00,0.92
5532.00,0.92
5531.00,0.92
5530.00,0.92
5529.00,0.92
5528.00,0.92
5527.00,0.92
5526.00,0.92
5525.00,0.92
5524.00,0.92
5523.00,0.92
5522.00,0.92
5521.00,0.92
5520.00,0.92
5519.00,0.92
5518.00,0.92
5517.00,0.92
5516.00,0.92
5515.00,0.92
5514.00,0.92
5513.00,0.92
5512.00,0.92
5511.00,0.93
5510.00,0.93
5509.00,0.93
5508.00,0.93
5507.00,0.93
5506.00,0.93
5505.00,0.93
5504.00,0.93
5503.00,0.93
5502.00,0.93
5501.00,0.93
5500.00,0.93
5499.00,0.93
5498.00,0.93
5497.00,0.93
5496.00,0.93
5495.00,0.93
5494.00,0.93
5493.00,0.93
5492.00,0.93
5491.00,0.93
5490.00,0.93
5489.00,0.93
5488.00,0.93
5487.00,0.94
5486.00,0.94
5485.00,0.94
5484.00,0.94
5483.00,0.94
5482.00,0.94
5481.00,0.94
5480.00,0.94
5479.00,0.94
5478.00,0.94
5477.00,0.94
5476.00,0.94
5475.00,0.94
5474.00,0.94
5473.00,0.95
5472.00,0.95
5471.00,0.95
5470.00,0.95
5469.00,0.95
5468.00,0.95
5467.00,0.95
5466.00,0.95
5465.00,0.95
5464.00,0.95
5463.00,0.95
5462.00,0.95
5461.00,0.95
5460.00,0.95
5459.00,0.95
5458.00,0.95
5457.00,0.95
5456.00,0.95
5455.00,0.95
5454.00,0.95
5453.00,0.95
5452.00,0.95
5451.00,0.95
5450.00,0.95
5449.00,0.95
5448.00,0.95
5447.00,0.95
5446.00,0.95
5445.00,0.95
5444.00,0.95
5443.00,0.95
5442.00,0.95
5441.00,0.95
5440.00,0.95
5439.00,0.95
5438.00,0.95
5437.00,0.95
5436.00,0.95
5435.00,0.95
5434.00,0.95
5433.00,0.95
5432.00,0.95
5431.00,0.95
5430.00,0.95
5429.00,0.95
5428.00,0.95
5427.00,0.95
5426.00,0.95
5425.00,0.95
5424.00,0.95
5423.00,0.95
5422.00,0.95
5421.00,0.95
5420.00,0.95
5419.00,0.95
5418.00,0.95
5417.00,0.95
5416.00,0.95
5415.00,0.95
5414.00,0.95
5413.00,0.95
5412.00,0.95
5411.00,0.95
5410.00,0.95
5409.00,0.95
5408.00,0.95
5407.00,0.95
5406.00,0.95
5405.00,0.95
5404.00,0.95
5403.00,0.95
5402.00,0.94
5401.00,0.94
5400.00,0.94
5399.00,0.94
5398.00,0.94
5397.00,0.94
5396.00,0.94
5395.00,0.94
5394.00,0.94
5393.00,0.94
5392.00,0.94
5391.00,0.94
5390.00,0.93
5389.00,0.93
5388.00,0.93
5387.00,0.93
5386.00,0.93
5385.00,0.93
5384.00,0.92
5383.00,0.92
5382.00,0.92
5381.00,0.92
5380.00,0.92
5379.00,0.91
5378.00,0.91
5377.00,0.91
5376.00,0.91
5375.00,0.91
5374.00,0.90
5373.00,0.90
5372.00,0.90
5371.00,0.90
5370.00,0.89
5369.00,0.89
5368.00,0.89
5367.00,0.89
5366.00,0.88
5365.00,0.88
5364.00,0.88
5363.00,0.87
5362.00,0.87
5361.00,0.86
5360.00,0.86
5359.00,0.86
5358.00,0.85
5357.00,0.85
5356.00,0.84
5355.00,0.84
5354.00,0.84
5353.00,0.83
5352.00,0.83
5351.00,0.82
5350.00,0.82
5349.00,0.81
5348.00,0.81
5347.00,0.80
5346.00,0.80
5345.00,0.79
5344.00,0.79
5343.00,0.78
5342.00,0.78
5341.00,0.77
5340.00,0.77
5339.00,0.76
5338.00,0.76
5337.00,0.75
5336.00,0.75
5335.00,0.74
5334.00,0.73
5333.00,0.73
5332.00,0.72
5331.00,0.72
5330.00,0.71
5329.00,0.71
5328.00,0.70
5327.00,0.70
5326.00,0.70
5325.00,0.69
5324.00,0.69
5323.00,0.68
5322.00,0.68
5321.00,0.67
5320.00,0.67
5319.00,0.66
5318.00,0.66
5317.00,0.66
5316.00,0.65
5315.00,0.65
5314.00,0.64
5313.00,0.64
5312.00,0.64
5311.00,0.63
5310.00,0.63
5309.00,0.62
5308.00,0.62
5307.00,0.62
5306.00,0.61
5305.00,0.61
5304.00,0.61
5303.00,0.60
5302.00,0.60
5301.00,0.60
5300.00,0.60
5299.00,0.59
5298.00,0.59
5297.00,0.59
5296.00,0.59
5295.00,0.59
5294.00,0.59
5293.00,0.58
5292.00,0.58
5291.00,0.58
5290.00,0.58
5289.00,0.58
5288.00,0.58
5287.00,0.58
5286.00,0.58
5285.00,0.58
5284.00,0.58
5283.00,0.58
5282.00,0.57
5281.00,0.57
5280.00,0.57
5279.00,0.57
5278.00,0.57
5277.00,0.57
5276.00,0.57
5275.00,0.57
5274.00,0.57
5273.00,0.57
5272.00,0.57
5271.00,0.57
5270.00,0.57
5269.00,0.57
5268.00,0.57
5267.00,0.57
5266.00,0.57
5265.00,0.57
5264.00,0.57
5263.00,0.57
5262.00,0.57
5261.00,0.57
5260.00,0.57
5259.00,0.57
5258.00,0.57
5257.00,0.57
5256.00,0.57
5255.00,0.57
5254.00,0.57
5253.00,0.57
5252.00,0.57
5251.00,0.57
5250.00,0.57
5249.00,0.57
5248.00,0.57
5247.00,0.57
5246.00,0.57
5245.00,0.57
5244.00,0.57
5243.00,0.57
5242.00,0.57
5241.00,0.57
5240.00,0.57
5239.00,0.57
5238.00,0.57
5237.00,0.57
5236.00,0.57
5235.00,0.57
5234.00,0.57
5233.00,0.57
5232.00,0.57
5231.00,0.57
5230.00,0.57
5229.00,0.57
5228.00,0.57
5227.00,0.57
5226.00,0.57
5225.00,0.57
5224.00,0.57
5223.00,0.57
5222.00,0.57
5221.00,0.57
5220.00,0.57
5219.00,0.57
5218.00,0.57
5217.00,0.57
5216.00,0.57
5215.00,0.57
5214.00,0.57
5213.00,0.57
5212.00,0.57
5211.00,0.57
5210.00,0.57
5209.00,0.58
5208.00,0.58
5207.00,0.58
5206.00,0.58
5205.00,0.58
5204.00,0.58
5203.00,0.58
5202.00,0.58
5201.00,0.58
5200.00,0.58
5199.00,0.58
5198.00,0.58
5197.00,0.58
5196.00,0.58
5195.00,0.58
5194.00,0.58
5193.00,0.58
5192.00,0.58
5191.00,0.58
5190.00,0.58
5189.00,0.58
5188.00,0.58
5187.00,0.58
5186.00,0.58
5185.00,0.58
5184.00,0.58
5183.00,0.58
5182.00,0.58
5181.00,0.58
5180.00,0.58
5179.00,0.58
5178.00,0.58
5177.00,0.58
5176.00,0.58
5175.00,0.58
5174.00,0.58
5173.00,0.59
5172.00,0.59
5171.00,0.59
5170.00,0.59
5169.00,0.59
5168.00,0.59
5167.00,0.59
5166.00,0.59
5165.00,0.59
5164.00,0.59
5163.00,0.59
5162.00,0.59
5161.00,0.59
5160.00,0.59
5159.00,0.59
5158.00,0.59
5157.00,0.59
5156.00,0.59
5155.00,0.59
5154.00,0.59
5153.00,0.59
5152.00,0.59
5151.00,0.59
5150.00,0.59
5149.00,0.59
5148.00,0.59
5147.00,0.59
5146.00,0.59
5145.00,0.59
5144.00,0.59
5143.00,0.59
5142.00,0.59
5141.00,0.59
5140.00,0.59
5139.00,0.59
5138.00,0.59
5137.00,0.59
5136.00,0.59
5135.00,0.60
5134.00,0.60
5133.00,0.60
5132.00,0.60
5131.00,0.60
5130.00,0.60
5129.00,0.60
5128.00,0.60
5127.00,0.60
5126.00,0.60
5125.00,0.60
5124.00,0.60
5123.00,0.60
5122.00,0.60
5121.00,0.60
5120.00,0.60
5119.00,0.60
5118.00,0.60
5117.00,0.60
5116.00,0.60
5115.00,0.60
5114.00,0.60
5113.00,0.60
5112.00,0.60
5111.00,0.60
5110.00,0.60
5109.00,0.60
5108.00,0.60
5107.00,0.60
5106.00,0.61
5105.00,0.61
5104.00,0.61
5103.00,0.61
5102.00,0.61
5101.00,0.61
5100.00,0.61
5099.00,0.61
5098.00,0.61
5097.00,0.61
5096.00,0.61
5095.00,0.61
5094.00,0.61
5093.00,0.61
5092.00,0.61
5091.00,0.61
5090.00,0.61
5089.00,0.61
5088.00,0.61
5087.00,0.61
5086.00,0.61
5085.00,0.61
5084.00,0.61
5083.00,0.61
5082.00,0.61
5081.00,0.61
5080.00,0.61
5079.00,0.61
5078.00,0.61
5077.00,0.61
5076.00,0.61
5075.00,0.61
5074.00,0.61
5073.00,0.61
5072.00,0.61
5071.00,0.61
5070.00,0.61
5069.00,0.62
5068.00,0.62
5067.00,0.62
5066.00,0.62
5065.00,0.62
5064.00,0.62
5063.00,0.62
5062.00,0.62
5061.00,0.62
5060.00,0.62
5059.00,0.62
5058.00,0.62
5057.00,0.62
5056.00,0.62
5055.00,0.62
5054.00,0.62
5053.00,0.62
5052.00,0.62
5051.00,0.62
5050.00,0.62
5049.00,0.62
5048.00,0.62
5047.00,0.62
5046.00,0.62
5045.00,0.62
5044.00,0.62
5043.00,0.62
5042.00,0.62
5041.00,0.62
5040.00,0.62
5039.00,0.62
5038.00,0.62
5037.00,0.63
5036.00,0.63
5035.00,0.63
5034.00,0.63
5033.00,0.63
5032.00,0.63
5031.00,0.63
5030.00,0.63
5029.00,0.63
5028.00,0.63
5027.00,0.63
5026.00,0.63
5025.00,0.63
5024.00,0.63
5023.00,0.63
5022.00,0.63
5021.00,0.63
5020.00,0.63
5019.00,0.63
5018.00,0.63
5017.00,0.63
5016.00,0.64
5015.00,0.64
5014.00,0.64
5013.00,0.64
5012.00,0.64
5011.00,0.64
5010.00,0.64
5009.00,0.64
5008.00,0.64
5007.00,0.64
5006.00,0.64
5005.00,0.64
5004.00,0.64
5003.00,0.64
5002.00,0.64
5001.00,0.64
5000.00,0.64
4999.00,0.64
4998.00,0.64
4997.00,0.64
4996.00,0.64
4995.00,0.64
4994.00,0.64
4993.00,0.64
4992.00,0.64
4991.00,0.65
4990.00,0.65
4989.00,0.65
4988.00,0.65
4987.00,0.65
4986.00,0.65
4985.00,0.65
4984.00,0.65
4983.00,0.65
4982.00,0.65
4981.00,0.65
4980.00,0.65
4979.00,0.65
4978.00,0.65
4977.00,0.65
4976.00,0.65
4975.00,0.65
4974.00,0.65
4973.00,0.66
4972.00,0.66
4971.00,0.66
4970.00,0.66
4969.00,0.66
4968.00,0.66
4967.00,0.66
4966.00,0.66
4965.00,0.66
4964.00,0.66
4963.00,0.66
4962.00,0.66
4961.00,0.66
4960.00,0.66
4959.00,0.66
4958.00,0.66
4957.00,0.66
4956.00,0.66
4955.00,0.66
4954.00,0.66
4953.00,0.66
4952.00,0.66
4951.00,0.66
4950.00,0.66
4949.00,0.66
4948.00,0.66
4947.00,0.67
4946.00,0.67
4945.00,0.67
4944.00,0.67
4943.00,0.67
4942.00,0.67
4941.00,0.67
4940.00,0.67
4939.00,0.67
4938.00,0.67
4937.00,0.67
4936.00,0.67
4935.00,0.67
4934.00,0.67
4933.00,0.67
4932.00,0.67
4931.00,0.67
4930.00,0.67
4929.00,0.67
4928.00,0.67
4927.00,0.67
4926.00,0.68
4925.00,0.68
4924.00,0.68
4923.00,0.68
4922.00,0.68
4921.00,0.68
4920.00,0.68
4919.00,0.68
4918.00,0.68
4917.00,0.68
4916.00,0.68
4915.00,0.68
4914.00,0.68
4913.00,0.68
4912.00,0.68
4911.00,0.68
4910.00,0.68
4909.00,0.68
4908.00,0.68
4907.00,0.69
4906.00,0.69
4905.00,0.69
4904.00,0.69
4903.00,0.69
4902.00,0.69
4901.00,0.69
4900.00,0.69
4899.00,0.69
4898.00,0.69
4897.00,0.69
4896.00,0.69
4895.00,0.69
4894.00,0.69
4893.00,0.69
4892.00,0.69
4891.00,0.69
4890.00,0.69
4889.00,0.69
4888.00,0.69
4887.00,0.69
4886.00,0.69
4885.00,0.69
4884.00,0.69
4883.00,0.69
4882.00,0.69
4881.00,0.69
4880.00,0.69
4879.00,0.70
4878.00,0.70
4877.00,0.70
4876.00,0.70
4875.00,0.70
4874.00,0.70
4873.00,0.70
4872.00,0.70
4871.00,0.70
4870.00,0.70
4869.00,0.70
4868.00,0.70
4867.00,0.70
4866.00,0.70
4865.00,0.70
4864.00,0.70
4863.00,0.70
4862.00,0.70
4861.00,0.70
4860.00,0.70
4859.00,0.71
4858.00,0.71
4857.00,0.71
4856.00,0.71
4855.00,0.71
4854.00,0.71
4853.00,0.71
4852.00,0.71
4851.00,0.71
4850.00,0.71
4849.00,0.71
4848.00,0.71
4847.00,0.71
4846.00,0.71
4845.00,0.71
4844.00,0.71
4843.00,0.71
4842.00,0.71
4841.00,0.71
4840.00,0.71
4839.00,0.71
4838.00,0.71
4837.00,0.71
4836.00,0.71
4835.00,0.71
4834.00,0.71
4833.00,0.71
4832.00,0.71
4831.00,0.71
4830.00,0.71
4829.00,0.71
4828.00,0.71
4827.00,0.71
4826.00,0.71
4825.00,0.72
4824.00,0.72
4823.00,0.72
4822.00,0.72
4821.00,0.72
4820.00,0.72
4819.00,0.72
4818.00,0.72
4817.00,0.72
4816.00,0.72
4815.00,0.72
4814.00,0.72
4813.00,0.73
4812.00,0.73
4811.00,0.73
4810.00,0.73
4809.00,0.73
4808.00,0.73
4807.00,0.73
4806.00,0.73
4805.00,0.73
4804.00,0.73
4803.00,0.73
4802.00,0.74
4801.00,0.74
4800.00,0.74
4799.00,0.74
4798.00,0.74
4797.00,0.74
4796.00,0.74
4795.00,0.74
4794.00,0.74
4793.00,0.74
4792.00,0.74
4791.00,0.74
4790.00,0.74
4789.00,0.74
4788.00,0.75
4787.00,0.75
4786.00,0.75
4785.00,0.75
4784.00,0.75
4783.00,0.75
4782.00,0.75
4781.00,0.75
4780.00,0.75
4779.00,0.75
4778.00,0.75
4777.00,0.75
4776.00,0.75
4775.00,0.75
4774.00,0.75
4773.00,0.75
4772.00,0.75
4771.00,0.76
4770.00,0.76
4769.00,0.76
4768.00,0.76
4767.00,0.76
4766.00,0.76
4765.00,0.76
4764.00,0.76
4763.00,0.76
4762.00,0.76
4761.00,0.76
4760.00,0.76
4759.00,0.76
4758.00,0.76
4757.00,0.76
4756.00,0.77
4755.00,0.77
4754.00,0.77
4753.00,0.77
4752.00,0.77
4751.00,0.77
4750.00,0.77
4749.00,0.77
4748.00,0.77
4747.00,0.77
4746.00,0.77
4745.00,0.77
4744.00,0.78
4743.00,0.78
4742.00,0.78
4741.00,0.78
4740.00,0.78
4739.00,0.78
4738.00,0.78
4737.00,0.78
4736.00,0.79
4735.00,0.79
4734.00,0.79
4733.00,0.79
4732.00,0.79
4731.00,0.79
4730.00,0.79
4729.00,0.79
4728.00,0.79
4727.00,0.79
4726.00,0.79
4725.00,0.79
4724.00,0.79
4723.00,0.80
4722.00,0.80
4721.00,0.80
4720.00,0.80
4719.00,0.80
4718.00,0.80
4717.00,0.80
4716.00,0.80
4715.00,0.80
4714.00,0.80
4713.00,0.80
4712.00,0.80
4711.00,0.81
4710.00,0.81
4709.00,0.81
4708.00,0.81
4707.00,0.81
4706.00,0.81
4705.00,0.81
4704.00,0.81
4703.00,0.81
4702.00,0.81
4701.00,0.82
4700.00,0.82
4699.00,0.82
4698.00,0.82
4697.00,0.82
4696.00,0.82
4695.00,0.82
4694.00,0.82
4693.00,0.82
4692.00,0.82
4691.00,0.82
4690.00,0.82
4689.00,0.82
4688.00,0.82
4687.00,0.83
4686.00,0.83
4685.00,0.83
4684.00,0.83
4683.00,0.83
4682.00,0.83
4681.00,0.83
4680.00,0.83
4679.00,0.83
4678.00,0.83
4677.00,0.83
4676.00,0.83
4675.00,0.84
4674.00,0.84
4673.00,0.84
4672.00,0.84
4671.00,0.84
4670.00,0.84
4669.00,0.84
4668.00,0.84
4667.00,0.84
4666.00,0.84
4665.00,0.84
4664.00,0.84
4663.00,0.84
4662.00,0.84
4661.00,0.84
4660.00,0.85
4659.00,0.85
4658.00,0.85
4657.00,0.85
4656.00,0.85
4655.00,0.85
4654.00,0.85
4653.00,0.85
4652.00,0.85
4651.00,0.85
4650.00,0.85
4649.00,0.85
4648.00,0.86
4647.00,0.86
4646.00,0.86
4645.00,0.86
4644.00,0.86
4643.00,0.86
4642.00,0.86
4641.00,0.86
4640.00,0.86
4639.00,0.86
4638.00,0.86
4637.00,0.86
4636.00,0.86
4635.00,0.86
4634.00,0.86
4633.00,0.86
4632.00,0.86
4631.00,0.86
4630.00,0.86
4629.00,0.86
4628.00,0.86
4627.00,0.86
4626.00,0.87
4625.00,0.87
4624.00,0.87
4623.00,0.87
4622.00,0.87
4621.00,0.87
4620.00,0.87
4619.00,0.87
4618.00,0.87
4617.00,0.87
4616.00,0.87
4615.00,0.87
4614.00,0.88
4613.00,0.88
4612.00,0.88
4611.00,0.88
4610.00,0.88
4609.00,0.88
4608.00,0.88
4607.00,0.88
4606.00,0.88
4605.00,0.88
4604.00,0.88
4603.00,0.88
4602.00,0.88
4601.00,0.88
4600.00,0.88
4599.00,0.88
4598.00,0.88
4597.00,0.88
4596.00,0.88
4595.00,0.88
4594.00,0.88
4593.00,0.88
4592.00,0.88
4591.00,0.88
4590.00,0.88
4589.00,0.88
4588.00,0.88
4587.00,0.88
4586.00,0.89
4585.00,0.89
4584.00,0.89
4583.00,0.89
4582.00,0.89
4581.00,0.89
4580.00,0.89
4579.00,0.89
4578.00,0.89
4577.00,0.89
4576.00,0.89
4575.00,0.89
4574.00,0.89
4573.00,0.89
4572.00,0.89
4571.00,0.89
4570.00,0.89
4569.00,0.89
4568.00,0.89
4567.00,0.89
4566.00,0.90
4565.00,0.90
4564.00,0.90
4563.00,0.90
4562.00,0.90
4561.00,0.90
4560.00,0.90
4559.00,0.90
4558.00,0.90
4557.00,0.90
4556.00,0.90
4555.00,0.91
4554.00,0.91
4553.00,0.91
4552.00,0.91
4551.00,0.91
4550.00,0.91
4549.00,0.91
4548.00,0.91
4547.00,0.91
4546.00,0.91
4545.00,0.91
4544.00,0.91
4543.00,0.91
4542.00,0.91
4541.00,0.91
4540.00,0.91
4539.00,0.91
4538.00,0.91
4537.00,0.91
4536.00,0.91
4535.00,0.91
4534.00,0.91
4533.00,0.91
4532.00,0.91
4531.00,0.91
4530.00,0.91
4529.00,0.91
4528.00,0.91
4527.00,0.91
4526.00,0.91
4525.00,0.91
4524.00,0.91
4523.00,0.91
4522.00,0.92
4521.00,0.92
4520.00,0.92
4519.00,0.92
4518.00,0.92
4517.00,0.92
4516.00,0.92
4515.00,0.92
4514.00,0.92
4513.00,0.92
4512.00,0.92
4511.00,0.92
4510.00,0.92
4509.00,0.92
4508.00,0.92
4507.00,0.92
4506.00,0.92
4505.00,0.92
4504.00,0.92
4503.00,0.92
4502.00,0.92
4501.00,0.92
4500.00,0.91
4499.00,0.91
4498.00,0.91
4497.00,0.91
4496.00,0.91
4495.00,0.91
4494.00,0.91
4493.00,0.91
4492.00,0.91
4491.00,0.91
4490.00,0.91
4489.00,0.91
4488.00,0.91
4487.00,0.91
4486.00,0.91
4485.00,0.91
4484.00,0.91
4483.00,0.91
4482.00,0.90
4481.00,0.90
4480.00,0.90
4479.00,0.90
4478.00,0.90
4477.00,0.90
4476.00,0.90
4475.00,0.90
4474.00,0.90
4473.00,0.90
4472.00,0.90
4471.00,0.90
4470.00,0.90
4469.00,0.89
4468.00,0.89
4467.00,0.89
4466.00,0.89
4465.00,0.89
4464.00,0.89
4463.00,0.89
4462.00,0.89
4461.00,0.89
4460.00,0.89
4459.00,0.89
4458.00,0.89
4457.00,0.88
4456.00,0.88
4455.00,0.88
4454.00,0.88
4453.00,0.88
4452.00,0.87
4451.00,0.87
4450.00,0.87
4449.00,0.87
4448.00,0.87
4447.00,0.86
4446.00,0.86
4445.00,0.86
4444.00,0.86
4443.00,0.85
4442.00,0.85
4441.00,0.85
4440.00,0.85
4439.00,0.84
4438.00,0.84
4437.00,0.84
4436.00,0.84
4435.00,0.83
4434.00,0.83
4433.00,0.83
4432.00,0.83
4431.00,0.83
4430.00,0.83
4429.00,0.82
4428.00,0.82
4427.00,0.82
4426.00,0.82
4425.00,0.82
4424.00,0.82
4423.00,0.82
4422.00,0.82
4421.00,0.82
4420.00,0.81
4419.00,0.81
4418.00,0.81
4417.00,0.81
4416.00,0.81
4415.00,0.81
4414.00,0.81
4413.00,0.81
4412.00,0.81
4411.00,0.81
4410.00,0.81
4409.00,0.81
4408.00,0.81
4407.00,0.81
4406.00,0.81
4405.00,0.81
4404.00,0.81
4403.00,0.82
4402.00,0.82
4401.00,0.82
4400.00,0.82
4399.00,0.82
4398.00,0.82
4397.00,0.82
4396.00,0.82
4395.00,0.82
4394.00,0.82
4393.00,0.82
4392.00,0.82
4391.00,0.82
4390.00,0.82
4389.00,0.82
4388.00,0.82
4387.00,0.83
4386.00,0.83
4385.00,0.83
4384.00,0.83
4383.00,0.83
4382.00,0.83
4381.00,0.83
4380.00,0.83
4379.00,0.84
4378.00,0.84
4377.00,0.84
4376.00,0.84
4375.00,0.84
4374.00,0.84
4373.00,0.84
4372.00,0.84
4371.00,0.84
4370.00,0.84
4369.00,0.84
4368.00,0.84
4367.00,0.84
4366.00,0.84
4365.00,0.84
4364.00,0.84
4363.00,0.84
4362.00,0.84
4361.00,0.84
4360.00,0.84
4359.00,0.84
4358.00,0.84
4357.00,0.84
4356.00,0.84
4355.00,0.84
4354.00,0.84
4353.00,0.84
4352.00,0.84
4351.00,0.84
4350.00,0.83
4349.00,0.83
4348.00,0.83
4347.00,0.83
4346.00,0.83
4345.00,0.84
4344.00,0.84
4343.00,0.84
4342.00,0.84
4341.00,0.84
4340.00,0.84
4339.00,0.84
4338.00,0.84
4337.00,0.84
4336.00,0.84
4335.00,0.84
4334.00,0.84
4333.00,0.84
4332.00,0.84
4331.00,0.84
4330.00,0.84
4329.00,0.85
4328.00,0.85
4327.00,0.85
4326.00,0.85
4325.00,0.85
4324.00,0.85
4323.00,0.85
4322.00,0.85
4321.00,0.85
4320.00,0.85
4319.00,0.86
4318.00,0.86
4317.00,0.86
4316.00,0.86
4315.00,0.86
4314.00,0.86
4313.00,0.86
4312.00,0.86
4311.00,0.86
4310.00,0.86
4309.00,0.86
4308.00,0.87
4307.00,0.87
4306.00,0.87
4305.00,0.87
4304.00,0.87
4303.00,0.87
4302.00,0.87
4301.00,0.87
4300.00,0.87
4299.00,0.87
4298.00,0.87
4297.00,0.88
4296.00,0.88
4295.00,0.88
4294.00,0.88
4293.00,0.88
4292.00,0.88
4291.00,0.88
4290.00,0.88
4289.00,0.88
4288.00,0.88
4287.00,0.88
4286.00,0.88
4285.00,0.88
4284.00,0.88
4283.00,0.88
4282.00,0.88
4281.00,0.88
4280.00,0.88
4279.00,0.88
4278.00,0.88
4277.00,0.88
4276.00,0.88
4275.00,0.88
4274.00,0.88
4273.00,0.88
4272.00,0.88
4271.00,0.88
4270.00,0.87
4269.00,0.87
4268.00,0.87
4267.00,0.87
4266.00,0.87
4265.00,0.87
4264.00,0.87
4263.00,0.87
4262.00,0.87
4261.00,0.87
4260.00,0.87
4259.00,0.87
4258.00,0.87
4257.00,0.87
4256.00,0.87
4255.00,0.87
4254.00,0.87
4253.00,0.87
4252.00,0.87
4251.00,0.87
4250.00,0.87
4249.00,0.88
4248.00,0.88
4247.00,0.88
4246.00,0.88
4245.00,0.88
4244.00,0.88
4243.00,0.88
4242.00,0.88
4241.00,0.88
4240.00,0.88
4239.00,0.88
4238.00,0.88
4237.00,0.88
4236.00,0.88
4235.00,0.88
4234.00,0.89
4233.00,0.89
4232.00,0.89
4231.00,0.89
4230.00,0.89
4229.00,0.89
4228.00,0.89
4227.00,0.89
4226.00,0.89
4225.00,0.89
4224.00,0.89
4223.00,0.90
4222.00,0.90
4221.00,0.90
4220.00,0.90
4219.00,0.90
4218.00,0.90
4217.00,0.90
4216.00,0.90
4215.00,0.90
4214.00,0.90
4213.00,0.90
4212.00,0.90
4211.00,0.90
4210.00,0.90
4209.00,0.90
4208.00,0.90
4207.00,0.90
4206.00,0.90
4205.00,0.90
4204.00,0.90
4203.00,0.90
4202.00,0.90
4201.00,0.90
4200.00,0.91
4199.00,0.91
4198.00,0.91
4197.00,0.91
4196.00,0.91
4195.00,0.91
4194.00,0.91
4193.00,0.91
4192.00,0.91
4191.00,0.91
4190.00,0.91
4189.00,0.91
4188.00,0.91
4187.00,0.91
4186.00,0.91
4185.00,0.91
4184.00,0.91
4183.00,0.91
4182.00,0.91
4181.00,0.91
4180.00,0.91
4179.00,0.91
4178.00,0.91
4177.00,0.91
4176.00,0.91
4175.00,0.91
4174.00,0.91
4173.00,0.90
4172.00,0.90
4171.00,0.90
4170.00,0.90
4169.00,0.90
4168.00,0.90
4167.00,0.90
4166.00,0.90
4165.00,0.91
4164.00,0.91
4163.00,0.91
4162.00,0.91
4161.00,0.91
4160.00,0.91
4159.00,0.91
4158.00,0.91
4157.00,0.91
4156.00,0.91
4155.00,0.91
4154.00,0.91
4153.00,0.91
4152.00,0.91
4151.00,0.91
4150.00,0.91
4149.00,0.91
4148.00,0.91
4147.00,0.91
4146.00,0.91
4145.00,0.91
4144.00,0.91
4143.00,0.91
4142.00,0.91
4141.00,0.91
4140.00,0.91
4139.00,0.91
4138.00,0.91
4137.00,0.91
4136.00,0.91
4135.00,0.91
4134.00,0.91
4133.00,0.91
4132.00,0.91
4131.00,0.91
4130.00,0.91
4129.00,0.91
4128.00,0.91
4127.00,0.91
4126.00,0.91
4125.00,0.91
4124.00,0.91
4123.00,0.91
4122.00,0.91
4121.00,0.91
4120.00,0.91
4119.00,0.91
4118.00,0.91
4117.00,0.91
4116.00,0.91
4115.00,0.92
4114.00,0.92
4113.00,0.92
4112.00,0.92
4111.00,0.92
4110.00,0.92
4109.00,0.92
4108.00,0.92
4107.00,0.92
4106.00,0.92
4105.00,0.92
4104.00,0.92
4103.00,0.92
4102.00,0.92
4101.00,0.92
4100.00,0.92
4099.00,0.92
4098.00,0.92
4097.00,0.92
4096.00,0.92
4095.00,0.92
4094.00,0.92
4093.00,0.92
4092.00,0.92
4091.00,0.92
4090.00,0.92
4089.00,0.92
4088.00,0.92
4087.00,0.93
4086.00,0.93
4085.00,0.93
4084.00,0.93
4083.00,0.93
4082.00,0.93
4081.00,0.93
4080.00,0.93
4079.00,0.93
4078.00,0.93
4077.00,0.93
4076.00,0.93
4075.00,0.93
4074.00,0.93
4073.00,0.93
4072.00,0.93
4071.00,0.93
4070.00,0.93
4069.00,0.93
4068.00,0.93
4067.00,0.93
4066.00,0.93
4065.00,0.93
4064.00,0.93
4063.00,0.93
4062.00,0.93
4061.00,0.93
4060.00,0.93
4059.00,0.93
4058.00,0.93
4057.00,0.93
4056.00,0.93
4055.00,0.93
4054.00,0.93
4053.00,0.93
4052.00,0.93
4051.00,0.93
4050.00,0.94
4049.00,0.94
4048.00,0.94
4047.00,0.94
4046.00,0.94
4045.00,0.94
4044.00,0.94
4043.00,0.94
4042.00,0.94
4041.00,0.94
4040.00,0.94
4039.00,0.94
4038.00,0.94
4037.00,0.94
4036.00,0.94
4035.00,0.95
4034.00,0.95
4033.00,0.95
4032.00,0.95
4031.00,0.95
4030.00,0.95
4029.00,0.95
4028.00,0.95
4027.00,0.95
4026.00,0.95
4025.00,0.95
4024.00,0.95
4023.00,0.94
4022.00,0.94
4021.00,0.94
4020.00,0.94
4019.00,0.94
4018.00,0.94
4017.00,0.94
4016.00,0.94
4015.00,0.94
4014.00,0.94
4013.00,0.94
4012.00,0.94
4011.00,0.94
4010.00,0.94
4009.00,0.94
4008.00,0.94
4007.00,0.94
4006.00,0.94
4005.00,0.95
4004.00,0.95
4003.00,0.95
4002.00,0.95
4001.00,0.95
4000.00,0.95
