创建为新数据集,样品 490 用户 Administrator 日期 星期一, 七月 16 2018
cm-1,%T
10000.00,0.94
9999.00,0.94
9998.00,0.94
9997.00,0.94
9996.00,0.93
9995.00,0.93
9994.00,0.93
9993.00,0.93
9992.00,0.93
9991.00,0.92
9990.00,0.92
9989.00,0.92
9988.00,0.92
9987.00,0.91
9986.00,0.91
9985.00,0.91
9984.00,0.91
9983.00,0.91
9982.00,0.91
9981.00,0.91
9980.00,0.91
9979.00,0.91
9978.00,0.91
9977.00,0.91
9976.00,0.91
9975.00,0.92
9974.00,0.92
9973.00,0.92
9972.00,0.92
9971.00,0.93
9970.00,0.93
9969.00,0.93
9968.00,0.93
9967.00,0.93
9966.00,0.93
9965.00,0.93
9964.00,0.93
9963.00,0.93
9962.00,0.93
9961.00,0.93
9960.00,0.93
9959.00,0.93
9958.00,0.92
9957.00,0.92
9956.00,0.92
9955.00,0.92
9954.00,0.92
9953.00,0.91
9952.00,0.91
9951.00,0.91
9950.00,0.91
9949.00,0.91
9948.00,0.91
9947.00,0.91
9946.00,0.91
9945.00,0.92
9944.00,0.92
9943.00,0.92
9942.00,0.92
9941.00,0.93
9940.00,0.93
9939.00,0.93
9938.00,0.93
9937.00,0.93
9936.00,0.94
9935.00,0.94
9934.00,0.94
9933.00,0.94
9932.00,0.93
9931.00,0.93
9930.00,0.93
9929.00,0.93
9928.00,0.93
9927.00,0.92
9926.00,0.92
9925.00,0.92
9924.00,0.91
9923.00,0.91
9922.00,0.91
9921.00,0.90
9920.00,0.90
9919.00,0.90
9918.00,0.90
9917.00,0.90
9916.00,0.89
9915.00,0.89
9914.00,0.89
9913.00,0.89
9912.00,0.89
9911.00,0.89
9910.00,0.89
9909.00,0.89
9908.00,0.89
9907.00,0.89
9906.00,0.89
9905.00,0.89
9904.00,0.89
9903.00,0.89
9902.00,0.89
9901.00,0.89
9900.00,0.89
9899.00,0.90
9898.00,0.90
9897.00,0.90
9896.00,0.90
9895.00,0.90
9894.00,0.90
9893.00,0.91
9892.00,0.91
9891.00,0.91
9890.00,0.91
9889.00,0.91
9888.00,0.91
9887.00,0.91
9886.00,0.91
9885.00,0.91
9884.00,0.91
9883.00,0.91
9882.00,0.91
9881.00,0.91
9880.00,0.91
9879.00,0.91
9878.00,0.91
9877.00,0.91
9876.00,0.91
9875.00,0.91
9874.00,0.91
9873.00,0.91
9872.00,0.91
9871.00,0.90
9870.00,0.90
9869.00,0.90
9868.00,0.90
9867.00,0.90
9866.00,0.89
9865.00,0.89
9864.00,0.89
9863.00,0.89
9862.00,0.89
9861.00,0.89
9860.00,0.89
9859.00,0.89
9858.00,0.88
9857.00,0.88
9856.00,0.89
9855.00,0.89
9854.00,0.89
9853.00,0.89
9852.00,0.89
9851.00,0.89
9850.00,0.90
9849.00,0.90
9848.00,0.90
9847.00,0.90
9846.00,0.91
9845.00,0.91
9844.00,0.91
9843.00,0.91
9842.00,0.92
9841.00,0.92
9840.00,0.92
9839.00,0.92
9838.00,0.92
9837.00,0.92
9836.00,0.92
9835.00,0.92
9834.00,0.92
9833.00,0.92
9832.00,0.92
9831.00,0.91
9830.00,0.91
9829.00,0.91
9828.00,0.91
9827.00,0.91
9826.00,0.91
9825.00,0.91
9824.00,0.91
9823.00,0.90
9822.00,0.90
9821.00,0.90
9820.00,0.90
9819.00,0.90
9818.00,0.90
9817.00,0.90
9816.00,0.90
9815.00,0.90
9814.00,0.90
9813.00,0.90
9812.00,0.90
9811.00,0.90
9810.00,0.90
9809.00,0.90
9808.00,0.90
9807.00,0.91
9806.00,0.91
9805.00,0.91
9804.00,0.91
9803.00,0.91
9802.00,0.91
9801.00,0.92
9800.00,0.92
9799.00,0.92
9798.00,0.92
9797.00,0.92
9796.00,0.93
9795.00,0.93
9794.00,0.93
9793.00,0.93
9792.00,0.93
9791.00,0.93
9790.00,0.93
9789.00,0.93
9788.00,0.92
9787.00,0.92
9786.00,0.92
9785.00,0.92
9784.00,0.92
9783.00,0.91
9782.00,0.91
9781.00,0.91
9780.00,0.91
9779.00,0.91
9778.00,0.91
9777.00,0.91
9776.00,0.91
9775.00,0.91
9774.00,0.91
9773.00,0.90
9772.00,0.90
9771.00,0.90
9770.00,0.90
9769.00,0.90
9768.00,0.90
9767.00,0.90
9766.00,0.90
9765.00,0.90
9764.00,0.90
9763.00,0.90
9762.00,0.89
9761.00,0.89
9760.00,0.89
9759.00,0.89
9758.00,0.89
9757.00,0.89
9756.00,0.89
9755.00,0.89
9754.00,0.89
9753.00,0.89
9752.00,0.89
9751.00,0.89
9750.00,0.89
9749.00,0.89
9748.00,0.89
9747.00,0.89
9746.00,0.89
9745.00,0.89
9744.00,0.89
9743.00,0.89
9742.00,0.90
9741.00,0.90
9740.00,0.90
9739.00,0.90
9738.00,0.90
9737.00,0.90
9736.00,0.91
9735.00,0.91
9734.00,0.91
9733.00,0.91
9732.00,0.92
9731.00,0.92
9730.00,0.92
9729.00,0.92
9728.00,0.92
9727.00,0.92
9726.00,0.92
9725.00,0.93
9724.00,0.93
9723.00,0.93
9722.00,0.93
9721.00,0.93
9720.00,0.93
9719.00,0.93
9718.00,0.92
9717.00,0.92
9716.00,0.92
9715.00,0.92
9714.00,0.92
9713.00,0.92
9712.00,0.92
9711.00,0.91
9710.00,0.91
9709.00,0.91
9708.00,0.91
9707.00,0.91
9706.00,0.91
9705.00,0.91
9704.00,0.91
9703.00,0.90
9702.00,0.90
9701.00,0.90
9700.00,0.90
9699.00,0.90
9698.00,0.90
9697.00,0.90
9696.00,0.90
9695.00,0.91
9694.00,0.91
9693.00,0.91
9692.00,0.91
9691.00,0.91
9690.00,0.91
9689.00,0.91
9688.00,0.91
9687.00,0.90
9686.00,0.90
9685.00,0.90
9684.00,0.90
9683.00,0.90
9682.00,0.90
9681.00,0.90
9680.00,0.91
9679.00,0.91
9678.00,0.91
9677.00,0.91
9676.00,0.91
9675.00,0.92
9674.00,0.92
9673.00,0.92
9672.00,0.92
9671.00,0.93
9670.00,0.93
9669.00,0.93
9668.00,0.93
9667.00,0.93
9666.00,0.93
9665.00,0.93
9664.00,0.93
9663.00,0.93
9662.00,0.93
9661.00,0.93
9660.00,0.92
9659.00,0.92
9658.00,0.92
9657.00,0.92
9656.00,0.92
9655.00,0.92
9654.00,0.92
9653.00,0.92
9652.00,0.92
9651.00,0.92
9650.00,0.92
9649.00,0.92
9648.00,0.92
9647.00,0.92
9646.00,0.92
9645.00,0.92
9644.00,0.92
9643.00,0.92
9642.00,0.92
9641.00,0.92
9640.00,0.92
9639.00,0.92
9638.00,0.92
9637.00,0.92
9636.00,0.92
9635.00,0.91
9634.00,0.91
9633.00,0.91
9632.00,0.91
9631.00,0.91
9630.00,0.91
9629.00,0.92
9628.00,0.92
9627.00,0.92
9626.00,0.92
9625.00,0.92
9624.00,0.92
9623.00,0.92
9622.00,0.93
9621.00,0.93
9620.00,0.93
9619.00,0.93
9618.00,0.93
9617.00,0.93
9616.00,0.93
9615.00,0.93
9614.00,0.93
9613.00,0.93
9612.00,0.93
9611.00,0.93
9610.00,0.93
9609.00,0.93
9608.00,0.93
9607.00,0.93
9606.00,0.93
9605.00,0.93
9604.00,0.93
9603.00,0.93
9602.00,0.93
9601.00,0.92
9600.00,0.92
9599.00,0.92
9598.00,0.92
9597.00,0.92
9596.00,0.92
9595.00,0.92
9594.00,0.92
9593.00,0.92
9592.00,0.92
9591.00,0.92
9590.00,0.92
9589.00,0.91
9588.00,0.91
9587.00,0.91
9586.00,0.91
9585.00,0.91
9584.00,0.91
9583.00,0.91
9582.00,0.91
9581.00,0.91
9580.00,0.91
9579.00,0.91
9578.00,0.91
9577.00,0.91
9576.00,0.91
9575.00,0.91
9574.00,0.91
9573.00,0.91
9572.00,0.91
9571.00,0.91
9570.00,0.91
9569.00,0.91
9568.00,0.91
9567.00,0.91
9566.00,0.91
9565.00,0.91
9564.00,0.91
9563.00,0.91
9562.00,0.91
9561.00,0.91
9560.00,0.91
9559.00,0.90
9558.00,0.90
9557.00,0.90
9556.00,0.90
9555.00,0.89
9554.00,0.89
9553.00,0.89
9552.00,0.89
9551.00,0.89
9550.00,0.89
9549.00,0.88
9548.00,0.88
9547.00,0.88
9546.00,0.88
9545.00,0.88
9544.00,0.88
9543.00,0.88
9542.00,0.88
9541.00,0.88
9540.00,0.88
9539.00,0.88
9538.00,0.88
9537.00,0.88
9536.00,0.88
9535.00,0.88
9534.00,0.88
9533.00,0.88
9532.00,0.88
9531.00,0.88
9530.00,0.88
9529.00,0.88
9528.00,0.88
9527.00,0.89
9526.00,0.89
9525.00,0.89
9524.00,0.89
9523.00,0.89
9522.00,0.89
9521.00,0.89
9520.00,0.90
9519.00,0.90
9518.00,0.90
9517.00,0.90
9516.00,0.90
9515.00,0.90
9514.00,0.90
9513.00,0.89
9512.00,0.89
9511.00,0.89
9510.00,0.89
9509.00,0.89
9508.00,0.89
9507.00,0.89
9506.00,0.89
9505.00,0.89
9504.00,0.89
9503.00,0.89
9502.00,0.89
9501.00,0.89
9500.00,0.89
9499.00,0.89
9498.00,0.89
9497.00,0.89
9496.00,0.89
9495.00,0.89
9494.00,0.90
9493.00,0.90
9492.00,0.90
9491.00,0.90
9490.00,0.90
9489.00,0.90
9488.00,0.91
9487.00,0.91
9486.00,0.91
9485.00,0.91
9484.00,0.91
9483.00,0.92
9482.00,0.92
9481.00,0.92
9480.00,0.92
9479.00,0.92
9478.00,0.92
9477.00,0.92
9476.00,0.93
9475.00,0.93
9474.00,0.93
9473.00,0.93
9472.00,0.93
9471.00,0.93
9470.00,0.93
9469.00,0.93
9468.00,0.93
9467.00,0.93
9466.00,0.93
9465.00,0.93
9464.00,0.93
9463.00,0.92
9462.00,0.92
9461.00,0.92
9460.00,0.92
9459.00,0.92
9458.00,0.92
9457.00,0.91
9456.00,0.91
9455.00,0.91
9454.00,0.91
9453.00,0.90
9452.00,0.90
9451.00,0.90
9450.00,0.90
9449.00,0.90
9448.00,0.89
9447.00,0.89
9446.00,0.89
9445.00,0.89
9444.00,0.89
9443.00,0.88
9442.00,0.88
9441.00,0.88
9440.00,0.88
9439.00,0.88
9438.00,0.87
9437.00,0.87
9436.00,0.87
9435.00,0.87
9434.00,0.87
9433.00,0.87
9432.00,0.87
9431.00,0.87
9430.00,0.87
9429.00,0.87
9428.00,0.87
9427.00,0.88
9426.00,0.88
9425.00,0.88
9424.00,0.88
9423.00,0.89
9422.00,0.89
9421.00,0.89
9420.00,0.90
9419.00,0.90
9418.00,0.90
9417.00,0.91
9416.00,0.91
9415.00,0.91
9414.00,0.92
9413.00,0.92
9412.00,0.92
9411.00,0.92
9410.00,0.93
9409.00,0.93
9408.00,0.93
9407.00,0.93
9406.00,0.93
9405.00,0.93
9404.00,0.94
9403.00,0.94
9402.00,0.94
9401.00,0.94
9400.00,0.94
9399.00,0.94
9398.00,0.94
9397.00,0.94
9396.00,0.94
9395.00,0.94
9394.00,0.94
9393.00,0.94
9392.00,0.94
9391.00,0.94
9390.00,0.94
9389.00,0.93
9388.00,0.93
9387.00,0.93
9386.00,0.93
9385.00,0.93
9384.00,0.92
9383.00,0.92
9382.00,0.92
9381.00,0.92
9380.00,0.91
9379.00,0.91
9378.00,0.91
9377.00,0.91
9376.00,0.91
9375.00,0.91
9374.00,0.91
9373.00,0.91
9372.00,0.91
9371.00,0.91
9370.00,0.91
9369.00,0.92
9368.00,0.92
9367.00,0.92
9366.00,0.92
9365.00,0.93
9364.00,0.93
9363.00,0.93
9362.00,0.93
9361.00,0.93
9360.00,0.93
9359.00,0.93
9358.00,0.93
9357.00,0.94
9356.00,0.94
9355.00,0.93
9354.00,0.93
9353.00,0.93
9352.00,0.93
9351.00,0.93
9350.00,0.93
9349.00,0.93
9348.00,0.93
9347.00,0.93
9346.00,0.93
9345.00,0.93
9344.00,0.93
9343.00,0.93
9342.00,0.93
9341.00,0.93
9340.00,0.93
9339.00,0.93
9338.00,0.93
9337.00,0.93
9336.00,0.93
9335.00,0.93
9334.00,0.93
9333.00,0.92
9332.00,0.92
9331.00,0.92
9330.00,0.92
9329.00,0.92
9328.00,0.92
9327.00,0.91
9326.00,0.91
9325.00,0.91
9324.00,0.91
9323.00,0.91
9322.00,0.91
9321.00,0.91
9320.00,0.91
9319.00,0.91
9318.00,0.91
9317.00,0.91
9316.00,0.91
9315.00,0.91
9314.00,0.91
9313.00,0.92
9312.00,0.92
9311.00,0.92
9310.00,0.92
9309.00,0.92
9308.00,0.92
9307.00,0.92
9306.00,0.92
9305.00,0.92
9304.00,0.92
9303.00,0.92
9302.00,0.92
9301.00,0.92
9300.00,0.92
9299.00,0.91
9298.00,0.91
9297.00,0.91
9296.00,0.91
9295.00,0.91
9294.00,0.91
9293.00,0.90
9292.00,0.90
9291.00,0.90
9290.00,0.90
9289.00,0.90
9288.00,0.90
9287.00,0.90
9286.00,0.90
9285.00,0.90
9284.00,0.90
9283.00,0.90
9282.00,0.90
9281.00,0.90
9280.00,0.90
9279.00,0.90
9278.00,0.90
9277.00,0.90
9276.00,0.90
9275.00,0.90
9274.00,0.90
9273.00,0.90
9272.00,0.90
9271.00,0.90
9270.00,0.90
9269.00,0.90
9268.00,0.90
9267.00,0.90
9266.00,0.90
9265.00,0.90
9264.00,0.89
9263.00,0.89
9262.00,0.89
9261.00,0.89
9260.00,0.89
9259.00,0.89
9258.00,0.88
9257.00,0.88
9256.00,0.88
9255.00,0.88
9254.00,0.89
9253.00,0.89
9252.00,0.89
9251.00,0.89
9250.00,0.89
9249.00,0.90
9248.00,0.90
9247.00,0.90
9246.00,0.91
9245.00,0.91
9244.00,0.91
9243.00,0.92
9242.00,0.92
9241.00,0.92
9240.00,0.93
9239.00,0.93
9238.00,0.93
9237.00,0.93
9236.00,0.93
9235.00,0.93
9234.00,0.93
9233.00,0.93
9232.00,0.93
9231.00,0.93
9230.00,0.93
9229.00,0.93
9228.00,0.93
9227.00,0.93
9226.00,0.93
9225.00,0.93
9224.00,0.93
9223.00,0.93
9222.00,0.93
9221.00,0.93
9220.00,0.93
9219.00,0.93
9218.00,0.93
9217.00,0.93
9216.00,0.93
9215.00,0.93
9214.00,0.93
9213.00,0.93
9212.00,0.93
9211.00,0.93
9210.00,0.93
9209.00,0.93
9208.00,0.93
9207.00,0.93
9206.00,0.93
9205.00,0.93
9204.00,0.93
9203.00,0.93
9202.00,0.93
9201.00,0.93
9200.00,0.93
9199.00,0.93
9198.00,0.93
9197.00,0.92
9196.00,0.92
9195.00,0.92
9194.00,0.92
9193.00,0.92
9192.00,0.92
9191.00,0.91
9190.00,0.91
9189.00,0.91
9188.00,0.91
9187.00,0.91
9186.00,0.91
9185.00,0.90
9184.00,0.90
9183.00,0.90
9182.00,0.90
9181.00,0.90
9180.00,0.90
9179.00,0.90
9178.00,0.90
9177.00,0.90
9176.00,0.90
9175.00,0.90
9174.00,0.90
9173.00,0.90
9172.00,0.90
9171.00,0.90
9170.00,0.90
9169.00,0.90
9168.00,0.90
9167.00,0.91
9166.00,0.91
9165.00,0.91
9164.00,0.91
9163.00,0.91
9162.00,0.91
9161.00,0.91
9160.00,0.91
9159.00,0.91
9158.00,0.91
9157.00,0.91
9156.00,0.91
9155.00,0.91
9154.00,0.91
9153.00,0.92
9152.00,0.92
9151.00,0.92
9150.00,0.92
9149.00,0.92
9148.00,0.92
9147.00,0.92
9146.00,0.92
9145.00,0.92
9144.00,0.92
9143.00,0.92
9142.00,0.92
9141.00,0.92
9140.00,0.92
9139.00,0.92
9138.00,0.92
9137.00,0.92
9136.00,0.92
9135.00,0.91
9134.00,0.91
9133.00,0.91
9132.00,0.91
9131.00,0.91
9130.00,0.91
9129.00,0.91
9128.00,0.91
9127.00,0.90
9126.00,0.90
9125.00,0.90
9124.00,0.91
9123.00,0.91
9122.00,0.91
9121.00,0.91
9120.00,0.91
9119.00,0.91
9118.00,0.91
9117.00,0.91
9116.00,0.92
9115.00,0.92
9114.00,0.92
9113.00,0.92
9112.00,0.92
9111.00,0.92
9110.00,0.92
9109.00,0.92
9108.00,0.92
9107.00,0.92
9106.00,0.92
9105.00,0.92
9104.00,0.92
9103.00,0.92
9102.00,0.92
9101.00,0.92
9100.00,0.92
9099.00,0.92
9098.00,0.92
9097.00,0.92
9096.00,0.92
9095.00,0.92
9094.00,0.93
9093.00,0.93
9092.00,0.93
9091.00,0.93
9090.00,0.93
9089.00,0.93
9088.00,0.93
9087.00,0.93
9086.00,0.93
9085.00,0.93
9084.00,0.93
9083.00,0.93
9082.00,0.93
9081.00,0.92
9080.00,0.92
9079.00,0.92
9078.00,0.92
9077.00,0.92
9076.00,0.92
9075.00,0.92
9074.00,0.92
9073.00,0.92
9072.00,0.92
9071.00,0.92
9070.00,0.92
9069.00,0.92
9068.00,0.92
9067.00,0.92
9066.00,0.92
9065.00,0.92
9064.00,0.92
9063.00,0.92
9062.00,0.92
9061.00,0.92
9060.00,0.92
9059.00,0.92
9058.00,0.92
9057.00,0.92
9056.00,0.92
9055.00,0.92
9054.00,0.92
9053.00,0.92
9052.00,0.92
9051.00,0.92
9050.00,0.92
9049.00,0.92
9048.00,0.92
9047.00,0.92
9046.00,0.91
9045.00,0.91
9044.00,0.91
9043.00,0.91
9042.00,0.91
9041.00,0.91
9040.00,0.91
9039.00,0.91
9038.00,0.91
9037.00,0.91
9036.00,0.90
9035.00,0.90
9034.00,0.91
9033.00,0.91
9032.00,0.91
9031.00,0.91
9030.00,0.91
9029.00,0.91
9028.00,0.91
9027.00,0.91
9026.00,0.91
9025.00,0.91
9024.00,0.91
9023.00,0.91
9022.00,0.91
9021.00,0.91
9020.00,0.91
9019.00,0.91
9018.00,0.91
9017.00,0.91
9016.00,0.91
9015.00,0.91
9014.00,0.91
9013.00,0.91
9012.00,0.91
9011.00,0.91
9010.00,0.91
9009.00,0.92
9008.00,0.92
9007.00,0.92
9006.00,0.92
9005.00,0.92
9004.00,0.92
9003.00,0.92
9002.00,0.92
9001.00,0.92
9000.00,0.92
8999.00,0.92
8998.00,0.93
8997.00,0.93
8996.00,0.93
8995.00,0.93
8994.00,0.93
8993.00,0.93
8992.00,0.93
8991.00,0.93
8990.00,0.93
8989.00,0.93
8988.00,0.93
8987.00,0.93
8986.00,0.93
8985.00,0.93
8984.00,0.93
8983.00,0.93
8982.00,0.93
8981.00,0.93
8980.00,0.93
8979.00,0.93
8978.00,0.93
8977.00,0.93
8976.00,0.93
8975.00,0.93
8974.00,0.93
8973.00,0.93
8972.00,0.93
8971.00,0.93
8970.00,0.92
8969.00,0.92
8968.00,0.92
8967.00,0.92
8966.00,0.92
8965.00,0.92
8964.00,0.92
8963.00,0.92
8962.00,0.92
8961.00,0.92
8960.00,0.92
8959.00,0.91
8958.00,0.91
8957.00,0.91
8956.00,0.91
8955.00,0.91
8954.00,0.91
8953.00,0.91
8952.00,0.91
8951.00,0.91
8950.00,0.91
8949.00,0.91
8948.00,0.91
8947.00,0.91
8946.00,0.91
8945.00,0.90
8944.00,0.90
8943.00,0.91
8942.00,0.91
8941.00,0.91
8940.00,0.91
8939.00,0.91
8938.00,0.91
8937.00,0.91
8936.00,0.91
8935.00,0.91
8934.00,0.91
8933.00,0.91
8932.00,0.91
8931.00,0.91
8930.00,0.91
8929.00,0.91
8928.00,0.91
8927.00,0.91
8926.00,0.91
8925.00,0.91
8924.00,0.91
8923.00,0.91
8922.00,0.92
8921.00,0.92
8920.00,0.92
8919.00,0.92
8918.00,0.92
8917.00,0.92
8916.00,0.92
8915.00,0.92
8914.00,0.92
8913.00,0.92
8912.00,0.92
8911.00,0.92
8910.00,0.92
8909.00,0.92
8908.00,0.92
8907.00,0.92
8906.00,0.92
8905.00,0.92
8904.00,0.92
8903.00,0.92
8902.00,0.92
8901.00,0.92
8900.00,0.92
8899.00,0.92
8898.00,0.92
8897.00,0.92
8896.00,0.92
8895.00,0.92
8894.00,0.92
8893.00,0.92
8892.00,0.92
8891.00,0.92
8890.00,0.92
8889.00,0.93
8888.00,0.93
8887.00,0.93
8886.00,0.93
8885.00,0.93
8884.00,0.93
8883.00,0.93
8882.00,0.93
8881.00,0.93
8880.00,0.93
8879.00,0.93
8878.00,0.94
8877.00,0.94
8876.00,0.94
8875.00,0.94
8874.00,0.94
8873.00,0.94
8872.00,0.94
8871.00,0.94
8870.00,0.94
8869.00,0.94
8868.00,0.94
8867.00,0.94
8866.00,0.94
8865.00,0.94
8864.00,0.94
8863.00,0.94
8862.00,0.94
8861.00,0.94
8860.00,0.93
8859.00,0.93
8858.00,0.93
8857.00,0.93
8856.00,0.93
8855.00,0.93
8854.00,0.93
8853.00,0.93
8852.00,0.93
8851.00,0.93
8850.00,0.93
8849.00,0.93
8848.00,0.93
8847.00,0.93
8846.00,0.93
8845.00,0.93
8844.00,0.93
8843.00,0.92
8842.00,0.92
8841.00,0.92
8840.00,0.92
8839.00,0.92
8838.00,0.92
8837.00,0.92
8836.00,0.92
8835.00,0.92
8834.00,0.92
8833.00,0.91
8832.00,0.91
8831.00,0.91
8830.00,0.91
8829.00,0.91
8828.00,0.91
8827.00,0.91
8826.00,0.91
8825.00,0.91
8824.00,0.91
8823.00,0.91
8822.00,0.91
8821.00,0.91
8820.00,0.91
8819.00,0.91
8818.00,0.91
8817.00,0.92
8816.00,0.92
8815.00,0.92
8814.00,0.92
8813.00,0.92
8812.00,0.92
8811.00,0.92
8810.00,0.92
8809.00,0.92
8808.00,0.92
8807.00,0.92
8806.00,0.92
8805.00,0.92
8804.00,0.92
8803.00,0.92
8802.00,0.92
8801.00,0.92
8800.00,0.92
8799.00,0.92
8798.00,0.92
8797.00,0.92
8796.00,0.92
8795.00,0.92
8794.00,0.92
8793.00,0.92
8792.00,0.92
8791.00,0.92
8790.00,0.92
8789.00,0.92
8788.00,0.92
8787.00,0.92
8786.00,0.92
8785.00,0.92
8784.00,0.92
8783.00,0.91
8782.00,0.91
8781.00,0.91
8780.00,0.91
8779.00,0.91
8778.00,0.91
8777.00,0.91
8776.00,0.91
8775.00,0.91
8774.00,0.91
8773.00,0.91
8772.00,0.90
8771.00,0.90
8770.00,0.90
8769.00,0.90
8768.00,0.90
8767.00,0.90
8766.00,0.90
8765.00,0.90
8764.00,0.90
8763.00,0.90
8762.00,0.90
8761.00,0.90
8760.00,0.90
8759.00,0.90
8758.00,0.90
8757.00,0.90
8756.00,0.90
8755.00,0.90
8754.00,0.90
8753.00,0.89
8752.00,0.89
8751.00,0.89
8750.00,0.89
8749.00,0.89
8748.00,0.89
8747.00,0.89
8746.00,0.89
8745.00,0.89
8744.00,0.89
8743.00,0.89
8742.00,0.89
8741.00,0.89
8740.00,0.89
8739.00,0.89
8738.00,0.89
8737.00,0.89
8736.00,0.89
8735.00,0.89
8734.00,0.89
8733.00,0.90
8732.00,0.90
8731.00,0.90
8730.00,0.90
8729.00,0.90
8728.00,0.90
8727.00,0.90
8726.00,0.90
8725.00,0.90
8724.00,0.90
8723.00,0.90
8722.00,0.90
8721.00,0.90
8720.00,0.90
8719.00,0.90
8718.00,0.90
8717.00,0.90
8716.00,0.90
8715.00,0.90
8714.00,0.90
8713.00,0.90
8712.00,0.90
8711.00,0.90
8710.00,0.90
8709.00,0.90
8708.00,0.90
8707.00,0.90
8706.00,0.90
8705.00,0.90
8704.00,0.90
8703.00,0.90
8702.00,0.90
8701.00,0.90
8700.00,0.90
8699.00,0.90
8698.00,0.90
8697.00,0.90
8696.00,0.90
8695.00,0.90
8694.00,0.90
8693.00,0.90
8692.00,0.90
8691.00,0.90
8690.00,0.90
8689.00,0.90
8688.00,0.90
8687.00,0.90
8686.00,0.90
8685.00,0.90
8684.00,0.90
8683.00,0.90
8682.00,0.90
8681.00,0.90
8680.00,0.90
8679.00,0.90
8678.00,0.90
8677.00,0.89
8676.00,0.89
8675.00,0.89
8674.00,0.89
8673.00,0.89
8672.00,0.89
8671.00,0.89
8670.00,0.89
8669.00,0.89
8668.00,0.89
8667.00,0.89
8666.00,0.89
8665.00,0.89
8664.00,0.89
8663.00,0.90
8662.00,0.90
8661.00,0.90
8660.00,0.90
8659.00,0.90
8658.00,0.90
8657.00,0.91
8656.00,0.91
8655.00,0.91
8654.00,0.91
8653.00,0.91
8652.00,0.91
8651.00,0.91
8650.00,0.91
8649.00,0.91
8648.00,0.91
8647.00,0.90
8646.00,0.90
8645.00,0.90
8644.00,0.90
8643.00,0.90
8642.00,0.90
8641.00,0.90
8640.00,0.90
8639.00,0.90
8638.00,0.90
8637.00,0.90
8636.00,0.90
8635.00,0.90
8634.00,0.90
8633.00,0.90
8632.00,0.90
8631.00,0.90
8630.00,0.90
8629.00,0.90
8628.00,0.90
8627.00,0.90
8626.00,0.90
8625.00,0.90
8624.00,0.90
8623.00,0.90
8622.00,0.90
8621.00,0.90
8620.00,0.90
8619.00,0.90
8618.00,0.90
8617.00,0.90
8616.00,0.90
8615.00,0.90
8614.00,0.90
8613.00,0.90
8612.00,0.90
8611.00,0.90
8610.00,0.90
8609.00,0.90
8608.00,0.90
8607.00,0.90
8606.00,0.90
8605.00,0.89
8604.00,0.89
8603.00,0.89
8602.00,0.89
8601.00,0.89
8600.00,0.89
8599.00,0.89
8598.00,0.89
8597.00,0.89
8596.00,0.89
8595.00,0.89
8594.00,0.89
8593.00,0.89
8592.00,0.88
8591.00,0.88
8590.00,0.88
8589.00,0.88
8588.00,0.88
8587.00,0.88
8586.00,0.88
8585.00,0.88
8584.00,0.88
8583.00,0.88
8582.00,0.88
8581.00,0.88
8580.00,0.88
8579.00,0.88
8578.00,0.88
8577.00,0.88
8576.00,0.88
8575.00,0.88
8574.00,0.88
8573.00,0.88
8572.00,0.88
8571.00,0.88
8570.00,0.88
8569.00,0.88
8568.00,0.88
8567.00,0.88
8566.00,0.88
8565.00,0.88
8564.00,0.88
8563.00,0.88
8562.00,0.88
8561.00,0.88
8560.00,0.88
8559.00,0.88
8558.00,0.87
8557.00,0.87
8556.00,0.87
8555.00,0.87
8554.00,0.87
8553.00,0.87
8552.00,0.86
8551.00,0.86
8550.00,0.86
8549.00,0.86
8548.00,0.86
8547.00,0.86
8546.00,0.86
8545.00,0.86
8544.00,0.86
8543.00,0.86
8542.00,0.86
8541.00,0.86
8540.00,0.86
8539.00,0.87
8538.00,0.87
8537.00,0.87
8536.00,0.87
8535.00,0.87
8534.00,0.87
8533.00,0.88
8532.00,0.88
8531.00,0.88
8530.00,0.88
8529.00,0.88
8528.00,0.88
8527.00,0.88
8526.00,0.88
8525.00,0.88
8524.00,0.88
8523.00,0.88
8522.00,0.88
8521.00,0.88
8520.00,0.88
8519.00,0.88
8518.00,0.88
8517.00,0.88
8516.00,0.88
8515.00,0.88
8514.00,0.88
8513.00,0.88
8512.00,0.88
8511.00,0.88
8510.00,0.88
8509.00,0.88
8508.00,0.87
8507.00,0.87
8506.00,0.87
8505.00,0.87
8504.00,0.87
8503.00,0.87
8502.00,0.87
8501.00,0.87
8500.00,0.87
8499.00,0.87
8498.00,0.87
8497.00,0.88
8496.00,0.88
8495.00,0.88
8494.00,0.88
8493.00,0.88
8492.00,0.88
8491.00,0.88
8490.00,0.88
8489.00,0.88
8488.00,0.88
8487.00,0.88
8486.00,0.88
8485.00,0.88
8484.00,0.88
8483.00,0.88
8482.00,0.88
8481.00,0.88
8480.00,0.88
8479.00,0.88
8478.00,0.88
8477.00,0.88
8476.00,0.88
8475.00,0.88
8474.00,0.88
8473.00,0.88
8472.00,0.88
8471.00,0.88
8470.00,0.88
8469.00,0.87
8468.00,0.87
8467.00,0.87
8466.00,0.87
8465.00,0.87
8464.00,0.87
8463.00,0.87
8462.00,0.87
8461.00,0.87
8460.00,0.87
8459.00,0.87
8458.00,0.87
8457.00,0.87
8456.00,0.87
8455.00,0.87
8454.00,0.87
8453.00,0.87
8452.00,0.87
8451.00,0.87
8450.00,0.87
8449.00,0.87
8448.00,0.87
8447.00,0.87
8446.00,0.87
8445.00,0.87
8444.00,0.87
8443.00,0.87
8442.00,0.87
8441.00,0.87
8440.00,0.87
8439.00,0.87
8438.00,0.87
8437.00,0.87
8436.00,0.87
8435.00,0.87
8434.00,0.87
8433.00,0.87
8432.00,0.87
8431.00,0.87
8430.00,0.87
8429.00,0.87
8428.00,0.87
8427.00,0.87
8426.00,0.87
8425.00,0.87
8424.00,0.87
8423.00,0.87
8422.00,0.87
8421.00,0.86
8420.00,0.86
8419.00,0.86
8418.00,0.86
8417.00,0.86
8416.00,0.86
8415.00,0.86
8414.00,0.86
8413.00,0.86
8412.00,0.86
8411.00,0.86
8410.00,0.86
8409.00,0.86
8408.00,0.86
8407.00,0.86
8406.00,0.86
8405.00,0.86
8404.00,0.86
8403.00,0.86
8402.00,0.86
8401.00,0.86
8400.00,0.86
8399.00,0.86
8398.00,0.87
8397.00,0.87
8396.00,0.87
8395.00,0.87
8394.00,0.87
8393.00,0.87
8392.00,0.87
8391.00,0.87
8390.00,0.87
8389.00,0.87
8388.00,0.87
8387.00,0.87
8386.00,0.87
8385.00,0.87
8384.00,0.87
8383.00,0.87
8382.00,0.87
8381.00,0.87
8380.00,0.87
8379.00,0.87
8378.00,0.87
8377.00,0.87
8376.00,0.87
8375.00,0.87
8374.00,0.87
8373.00,0.87
8372.00,0.87
8371.00,0.87
8370.00,0.87
8369.00,0.87
8368.00,0.88
8367.00,0.88
8366.00,0.88
8365.00,0.88
8364.00,0.88
8363.00,0.88
8362.00,0.88
8361.00,0.88
8360.00,0.88
8359.00,0.88
8358.00,0.88
8357.00,0.87
8356.00,0.87
8355.00,0.87
8354.00,0.87
8353.00,0.87
8352.00,0.87
8351.00,0.87
8350.00,0.87
8349.00,0.87
8348.00,0.87
8347.00,0.87
8346.00,0.87
8345.00,0.87
8344.00,0.87
8343.00,0.87
8342.00,0.87
8341.00,0.87
8340.00,0.88
8339.00,0.88
8338.00,0.88
8337.00,0.88
8336.00,0.88
8335.00,0.88
8334.00,0.88
8333.00,0.88
8332.00,0.88
8331.00,0.88
8330.00,0.88
8329.00,0.88
8328.00,0.88
8327.00,0.88
8326.00,0.88
8325.00,0.88
8324.00,0.87
8323.00,0.87
8322.00,0.87
8321.00,0.87
8320.00,0.87
8319.00,0.87
8318.00,0.87
8317.00,0.87
8316.00,0.87
8315.00,0.88
8314.00,0.88
8313.00,0.88
8312.00,0.88
8311.00,0.88
8310.00,0.88
8309.00,0.88
8308.00,0.89
8307.00,0.89
8306.00,0.89
8305.00,0.89
8304.00,0.89
8303.00,0.89
8302.00,0.89
8301.00,0.89
8300.00,0.89
8299.00,0.89
8298.00,0.89
8297.00,0.89
8296.00,0.89
8295.00,0.89
8294.00,0.89
8293.00,0.89
8292.00,0.89
8291.00,0.89
8290.00,0.89
8289.00,0.89
8288.00,0.89
8287.00,0.89
8286.00,0.89
8285.00,0.88
8284.00,0.88
8283.00,0.88
8282.00,0.88
8281.00,0.88
8280.00,0.88
8279.00,0.88
8278.00,0.88
8277.00,0.88
8276.00,0.88
8275.00,0.88
8274.00,0.88
8273.00,0.88
8272.00,0.88
8271.00,0.88
8270.00,0.88
8269.00,0.88
8268.00,0.88
8267.00,0.88
8266.00,0.88
8265.00,0.88
8264.00,0.88
8263.00,0.88
8262.00,0.88
8261.00,0.88
8260.00,0.88
8259.00,0.88
8258.00,0.88
8257.00,0.88
8256.00,0.88
8255.00,0.88
8254.00,0.88
8253.00,0.88
8252.00,0.88
8251.00,0.88
8250.00,0.88
8249.00,0.89
8248.00,0.89
8247.00,0.89
8246.00,0.89
8245.00,0.89
8244.00,0.89
8243.00,0.89
8242.00,0.89
8241.00,0.89
8240.00,0.89
8239.00,0.89
8238.00,0.89
8237.00,0.89
8236.00,0.89
8235.00,0.89
8234.00,0.89
8233.00,0.89
8232.00,0.89
8231.00,0.89
8230.00,0.89
8229.00,0.89
8228.00,0.89
8227.00,0.89
8226.00,0.89
8225.00,0.89
8224.00,0.89
8223.00,0.89
8222.00,0.90
8221.00,0.90
8220.00,0.90
8219.00,0.90
8218.00,0.90
8217.00,0.90
8216.00,0.90
8215.00,0.90
8214.00,0.90
8213.00,0.90
8212.00,0.90
8211.00,0.90
8210.00,0.90
8209.00,0.90
8208.00,0.90
8207.00,0.90
8206.00,0.90
8205.00,0.90
8204.00,0.90
8203.00,0.90
8202.00,0.90
8201.00,0.90
8200.00,0.90
8199.00,0.90
8198.00,0.90
8197.00,0.90
8196.00,0.90
8195.00,0.90
8194.00,0.90
8193.00,0.90
8192.00,0.90
8191.00,0.90
8190.00,0.90
8189.00,0.90
8188.00,0.90
8187.00,0.90
8186.00,0.90
8185.00,0.90
8184.00,0.90
8183.00,0.90
8182.00,0.90
8181.00,0.90
8180.00,0.90
8179.00,0.90
8178.00,0.90
8177.00,0.90
8176.00,0.90
8175.00,0.90
8174.00,0.90
8173.00,0.90
8172.00,0.90
8171.00,0.90
8170.00,0.90
8169.00,0.91
8168.00,0.91
8167.00,0.91
8166.00,0.91
8165.00,0.91
8164.00,0.91
8163.00,0.91
8162.00,0.91
8161.00,0.91
8160.00,0.91
8159.00,0.91
8158.00,0.91
8157.00,0.91
8156.00,0.91
8155.00,0.90
8154.00,0.90
8153.00,0.90
8152.00,0.90
8151.00,0.90
8150.00,0.90
8149.00,0.90
8148.00,0.90
8147.00,0.90
8146.00,0.89
8145.00,0.89
8144.00,0.89
8143.00,0.89
8142.00,0.89
8141.00,0.89
8140.00,0.89
8139.00,0.89
8138.00,0.90
8137.00,0.90
8136.00,0.90
8135.00,0.90
8134.00,0.90
8133.00,0.90
8132.00,0.90
8131.00,0.90
8130.00,0.90
8129.00,0.90
8128.00,0.90
8127.00,0.90
8126.00,0.90
8125.00,0.90
8124.00,0.90
8123.00,0.90
8122.00,0.91
8121.00,0.91
8120.00,0.91
8119.00,0.91
8118.00,0.91
8117.00,0.91
8116.00,0.91
8115.00,0.91
8114.00,0.91
8113.00,0.91
8112.00,0.91
8111.00,0.91
8110.00,0.92
8109.00,0.92
8108.00,0.92
8107.00,0.92
8106.00,0.91
8105.00,0.91
8104.00,0.91
8103.00,0.91
8102.00,0.91
8101.00,0.91
8100.00,0.91
8099.00,0.91
8098.00,0.91
8097.00,0.91
8096.00,0.91
8095.00,0.91
8094.00,0.91
8093.00,0.91
8092.00,0.91
8091.00,0.91
8090.00,0.91
8089.00,0.91
8088.00,0.91
8087.00,0.91
8086.00,0.91
8085.00,0.91
8084.00,0.91
8083.00,0.91
8082.00,0.91
8081.00,0.91
8080.00,0.91
8079.00,0.91
8078.00,0.91
8077.00,0.91
8076.00,0.91
8075.00,0.91
8074.00,0.91
8073.00,0.91
8072.00,0.91
8071.00,0.91
8070.00,0.91
8069.00,0.91
8068.00,0.91
8067.00,0.91
8066.00,0.91
8065.00,0.91
8064.00,0.91
8063.00,0.91
8062.00,0.91
8061.00,0.91
8060.00,0.91
8059.00,0.91
8058.00,0.91
8057.00,0.91
8056.00,0.91
8055.00,0.91
8054.00,0.91
8053.00,0.91
8052.00,0.91
8051.00,0.91
8050.00,0.91
8049.00,0.91
8048.00,0.91
8047.00,0.91
8046.00,0.91
8045.00,0.91
8044.00,0.91
8043.00,0.91
8042.00,0.91
8041.00,0.91
8040.00,0.91
8039.00,0.91
8038.00,0.91
8037.00,0.91
8036.00,0.91
8035.00,0.91
8034.00,0.91
8033.00,0.91
8032.00,0.91
8031.00,0.92
8030.00,0.92
8029.00,0.92
8028.00,0.92
8027.00,0.92
8026.00,0.92
8025.00,0.92
8024.00,0.92
8023.00,0.92
8022.00,0.92
8021.00,0.92
8020.00,0.92
8019.00,0.92
8018.00,0.92
8017.00,0.92
8016.00,0.92
8015.00,0.92
8014.00,0.92
8013.00,0.92
8012.00,0.92
8011.00,0.92
8010.00,0.92
8009.00,0.92
8008.00,0.92
8007.00,0.92
8006.00,0.92
8005.00,0.92
8004.00,0.92
8003.00,0.92
8002.00,0.92
8001.00,0.92
8000.00,0.92
7999.00,0.92
7998.00,0.92
7997.00,0.92
7996.00,0.92
7995.00,0.92
7994.00,0.92
7993.00,0.92
7992.00,0.92
7991.00,0.92
7990.00,0.92
7989.00,0.92
7988.00,0.92
7987.00,0.92
7986.00,0.92
7985.00,0.92
7984.00,0.92
7983.00,0.92
7982.00,0.92
7981.00,0.92
7980.00,0.92
7979.00,0.92
7978.00,0.92
7977.00,0.92
7976.00,0.92
7975.00,0.92
7974.00,0.92
7973.00,0.92
7972.00,0.92
7971.00,0.92
7970.00,0.92
7969.00,0.93
7968.00,0.93
7967.00,0.93
7966.00,0.93
7965.00,0.93
7964.00,0.93
7963.00,0.93
7962.00,0.93
7961.00,0.93
7960.00,0.93
7959.00,0.92
7958.00,0.92
7957.00,0.92
7956.00,0.92
7955.00,0.92
7954.00,0.92
7953.00,0.92
7952.00,0.92
7951.00,0.92
7950.00,0.92
7949.00,0.92
7948.00,0.92
7947.00,0.92
7946.00,0.93
7945.00,0.93
7944.00,0.93
7943.00,0.93
7942.00,0.93
7941.00,0.93
7940.00,0.93
7939.00,0.93
7938.00,0.93
7937.00,0.93
7936.00,0.93
7935.00,0.93
7934.00,0.93
7933.00,0.92
7932.00,0.92
7931.00,0.92
7930.00,0.92
7929.00,0.92
7928.00,0.92
7927.00,0.92
7926.00,0.92
7925.00,0.92
7924.00,0.92
7923.00,0.92
7922.00,0.92
7921.00,0.92
7920.00,0.92
7919.00,0.92
7918.00,0.92
7917.00,0.92
7916.00,0.92
7915.00,0.92
7914.00,0.92
7913.00,0.92
7912.00,0.92
7911.00,0.92
7910.00,0.92
7909.00,0.92
7908.00,0.92
7907.00,0.92
7906.00,0.92
7905.00,0.92
7904.00,0.92
7903.00,0.92
7902.00,0.92
7901.00,0.92
7900.00,0.92
7899.00,0.92
7898.00,0.92
7897.00,0.92
7896.00,0.92
7895.00,0.92
7894.00,0.92
7893.00,0.92
7892.00,0.92
7891.00,0.92
7890.00,0.92
7889.00,0.92
7888.00,0.92
7887.00,0.92
7886.00,0.92
7885.00,0.92
7884.00,0.92
7883.00,0.92
7882.00,0.93
7881.00,0.93
7880.00,0.93
7879.00,0.93
7878.00,0.93
7877.00,0.93
7876.00,0.93
7875.00,0.93
7874.00,0.93
7873.00,0.93
7872.00,0.93
7871.00,0.93
7870.00,0.93
7869.00,0.93
7868.00,0.93
7867.00,0.93
7866.00,0.93
7865.00,0.93
7864.00,0.93
7863.00,0.93
7862.00,0.93
7861.00,0.93
7860.00,0.93
7859.00,0.93
7858.00,0.93
7857.00,0.93
7856.00,0.93
7855.00,0.93
7854.00,0.93
7853.00,0.93
7852.00,0.93
7851.00,0.93
7850.00,0.93
7849.00,0.93
7848.00,0.93
7847.00,0.93
7846.00,0.93
7845.00,0.93
7844.00,0.93
7843.00,0.93
7842.00,0.93
7841.00,0.93
7840.00,0.93
7839.00,0.93
7838.00,0.93
7837.00,0.93
7836.00,0.93
7835.00,0.93
7834.00,0.93
7833.00,0.93
7832.00,0.93
7831.00,0.93
7830.00,0.93
7829.00,0.93
7828.00,0.93
7827.00,0.93
7826.00,0.93
7825.00,0.93
7824.00,0.93
7823.00,0.93
7822.00,0.93
7821.00,0.93
7820.00,0.93
7819.00,0.93
7818.00,0.93
7817.00,0.93
7816.00,0.93
7815.00,0.93
7814.00,0.93
7813.00,0.93
7812.00,0.93
7811.00,0.92
7810.00,0.92
7809.00,0.92
7808.00,0.92
7807.00,0.92
7806.00,0.92
7805.00,0.92
7804.00,0.92
7803.00,0.92
7802.00,0.92
7801.00,0.92
7800.00,0.92
7799.00,0.92
7798.00,0.92
7797.00,0.92
7796.00,0.93
7795.00,0.93
7794.00,0.93
7793.00,0.93
7792.00,0.93
7791.00,0.93
7790.00,0.93
7789.00,0.93
7788.00,0.93
7787.00,0.93
7786.00,0.93
7785.00,0.93
7784.00,0.93
7783.00,0.93
7782.00,0.93
7781.00,0.93
7780.00,0.93
7779.00,0.93
7778.00,0.93
7777.00,0.93
7776.00,0.93
7775.00,0.93
7774.00,0.93
7773.00,0.93
7772.00,0.93
7771.00,0.93
7770.00,0.93
7769.00,0.93
7768.00,0.93
7767.00,0.93
7766.00,0.93
7765.00,0.93
7764.00,0.93
7763.00,0.93
7762.00,0.93
7761.00,0.93
7760.00,0.93
7759.00,0.93
7758.00,0.93
7757.00,0.93
7756.00,0.93
7755.00,0.93
7754.00,0.93
7753.00,0.93
7752.00,0.93
7751.00,0.93
7750.00,0.93
7749.00,0.93
7748.00,0.93
7747.00,0.93
7746.00,0.93
7745.00,0.93
7744.00,0.93
7743.00,0.93
7742.00,0.93
7741.00,0.94
7740.00,0.94
7739.00,0.94
7738.00,0.94
7737.00,0.94
7736.00,0.94
7735.00,0.93
7734.00,0.93
7733.00,0.93
7732.00,0.93
7731.00,0.93
7730.00,0.93
7729.00,0.93
7728.00,0.93
7727.00,0.93
7726.00,0.93
7725.00,0.93
7724.00,0.93
7723.00,0.93
7722.00,0.93
7721.00,0.93
7720.00,0.93
7719.00,0.93
7718.00,0.93
7717.00,0.93
7716.00,0.93
7715.00,0.93
7714.00,0.93
7713.00,0.93
7712.00,0.93
7711.00,0.93
7710.00,0.93
7709.00,0.93
7708.00,0.93
7707.00,0.93
7706.00,0.93
7705.00,0.93
7704.00,0.93
7703.00,0.93
7702.00,0.93
7701.00,0.93
7700.00,0.93
7699.00,0.93
7698.00,0.93
7697.00,0.93
7696.00,0.93
7695.00,0.93
7694.00,0.93
7693.00,0.93
7692.00,0.93
7691.00,0.93
7690.00,0.93
7689.00,0.93
7688.00,0.93
7687.00,0.93
7686.00,0.94
7685.00,0.94
7684.00,0.94
7683.00,0.94
7682.00,0.94
7681.00,0.94
7680.00,0.94
7679.00,0.94
7678.00,0.94
7677.00,0.94
7676.00,0.94
7675.00,0.94
7674.00,0.94
7673.00,0.94
7672.00,0.94
7671.00,0.94
7670.00,0.94
7669.00,0.94
7668.00,0.94
7667.00,0.94
7666.00,0.94
7665.00,0.94
7664.00,0.94
7663.00,0.94
7662.00,0.94
7661.00,0.94
7660.00,0.94
7659.00,0.93
7658.00,0.93
7657.00,0.93
7656.00,0.93
7655.00,0.93
7654.00,0.93
7653.00,0.93
7652.00,0.93
7651.00,0.93
7650.00,0.93
7649.00,0.93
7648.00,0.93
7647.00,0.93
7646.00,0.93
7645.00,0.93
7644.00,0.93
7643.00,0.93
7642.00,0.93
7641.00,0.93
7640.00,0.93
7639.00,0.93
7638.00,0.93
7637.00,0.93
7636.00,0.93
7635.00,0.93
7634.00,0.93
7633.00,0.94
7632.00,0.94
7631.00,0.94
7630.00,0.94
7629.00,0.94
7628.00,0.94
7627.00,0.94
7626.00,0.94
7625.00,0.94
7624.00,0.94
7623.00,0.94
7622.00,0.94
7621.00,0.94
7620.00,0.94
7619.00,0.94
7618.00,0.94
7617.00,0.94
7616.00,0.94
7615.00,0.94
7614.00,0.94
7613.00,0.93
7612.00,0.93
7611.00,0.93
7610.00,0.93
7609.00,0.93
7608.00,0.93
7607.00,0.93
7606.00,0.93
7605.00,0.93
7604.00,0.93
7603.00,0.93
7602.00,0.93
7601.00,0.93
7600.00,0.93
7599.00,0.93
7598.00,0.93
7597.00,0.93
7596.00,0.93
7595.00,0.93
7594.00,0.93
7593.00,0.93
7592.00,0.93
7591.00,0.93
7590.00,0.93
7589.00,0.93
7588.00,0.93
7587.00,0.93
7586.00,0.93
7585.00,0.93
7584.00,0.93
7583.00,0.93
7582.00,0.93
7581.00,0.93
7580.00,0.93
7579.00,0.93
7578.00,0.93
7577.00,0.93
7576.00,0.93
7575.00,0.93
7574.00,0.93
7573.00,0.94
7572.00,0.94
7571.00,0.94
7570.00,0.94
7569.00,0.94
7568.00,0.94
7567.00,0.94
7566.00,0.94
7565.00,0.94
7564.00,0.94
7563.00,0.94
7562.00,0.94
7561.00,0.94
7560.00,0.94
7559.00,0.94
7558.00,0.94
7557.00,0.94
7556.00,0.94
7555.00,0.94
7554.00,0.94
7553.00,0.94
7552.00,0.94
7551.00,0.93
7550.00,0.93
7549.00,0.93
7548.00,0.93
7547.00,0.93
7546.00,0.93
7545.00,0.93
7544.00,0.93
7543.00,0.93
7542.00,0.93
7541.00,0.93
7540.00,0.93
7539.00,0.93
7538.00,0.93
7537.00,0.93
7536.00,0.94
7535.00,0.94
7534.00,0.94
7533.00,0.94
7532.00,0.94
7531.00,0.94
7530.00,0.94
7529.00,0.94
7528.00,0.94
7527.00,0.94
7526.00,0.94
7525.00,0.94
7524.00,0.94
7523.00,0.94
7522.00,0.94
7521.00,0.94
7520.00,0.93
7519.00,0.93
7518.00,0.93
7517.00,0.93
7516.00,0.93
7515.00,0.93
7514.00,0.92
7513.00,0.92
7512.00,0.92
7511.00,0.92
7510.00,0.92
7509.00,0.92
7508.00,0.92
7507.00,0.92
7506.00,0.92
7505.00,0.92
7504.00,0.92
7503.00,0.92
7502.00,0.92
7501.00,0.92
7500.00,0.92
7499.00,0.92
7498.00,0.92
7497.00,0.92
7496.00,0.92
7495.00,0.92
7494.00,0.92
7493.00,0.92
7492.00,0.92
7491.00,0.92
7490.00,0.92
7489.00,0.92
7488.00,0.93
7487.00,0.93
7486.00,0.93
7485.00,0.93
7484.00,0.93
7483.00,0.93
7482.00,0.93
7481.00,0.93
7480.00,0.93
7479.00,0.92
7478.00,0.92
7477.00,0.92
7476.00,0.92
7475.00,0.92
7474.00,0.92
7473.00,0.92
7472.00,0.92
7471.00,0.92
7470.00,0.92
7469.00,0.92
7468.00,0.92
7467.00,0.92
7466.00,0.92
7465.00,0.92
7464.00,0.92
7463.00,0.92
7462.00,0.92
7461.00,0.92
7460.00,0.92
7459.00,0.92
7458.00,0.92
7457.00,0.92
7456.00,0.92
7455.00,0.92
7454.00,0.92
7453.00,0.92
7452.00,0.92
7451.00,0.92
7450.00,0.92
7449.00,0.92
7448.00,0.92
7447.00,0.92
7446.00,0.92
7445.00,0.92
7444.00,0.91
7443.00,0.91
7442.00,0.91
7441.00,0.91
7440.00,0.91
7439.00,0.91
7438.00,0.91
7437.00,0.91
7436.00,0.91
7435.00,0.91
7434.00,0.91
7433.00,0.91
7432.00,0.91
7431.00,0.91
7430.00,0.91
7429.00,0.91
7428.00,0.91
7427.00,0.91
7426.00,0.91
7425.00,0.91
7424.00,0.91
7423.00,0.91
7422.00,0.91
7421.00,0.91
7420.00,0.91
7419.00,0.91
7418.00,0.91
7417.00,0.91
7416.00,0.91
7415.00,0.91
7414.00,0.91
7413.00,0.91
7412.00,0.91
7411.00,0.91
7410.00,0.91
7409.00,0.91
7408.00,0.91
7407.00,0.91
7406.00,0.91
7405.00,0.91
7404.00,0.90
7403.00,0.90
7402.00,0.90
7401.00,0.90
7400.00,0.90
7399.00,0.90
7398.00,0.90
7397.00,0.90
7396.00,0.90
7395.00,0.90
7394.00,0.90
7393.00,0.90
7392.00,0.90
7391.00,0.90
7390.00,0.90
7389.00,0.90
7388.00,0.90
7387.00,0.90
7386.00,0.90
7385.00,0.90
7384.00,0.90
7383.00,0.90
7382.00,0.90
7381.00,0.90
7380.00,0.90
7379.00,0.90
7378.00,0.90
7377.00,0.89
7376.00,0.89
7375.00,0.89
7374.00,0.89
7373.00,0.89
7372.00,0.89
7371.00,0.89
7370.00,0.89
7369.00,0.89
7368.00,0.89
7367.00,0.89
7366.00,0.89
7365.00,0.89
7364.00,0.89
7363.00,0.89
7362.00,0.89
7361.00,0.90
7360.00,0.90
7359.00,0.90
7358.00,0.90
7357.00,0.90
7356.00,0.90
7355.00,0.90
7354.00,0.90
7353.00,0.90
7352.00,0.90
7351.00,0.90
7350.00,0.90
7349.00,0.90
7348.00,0.90
7347.00,0.90
7346.00,0.90
7345.00,0.89
7344.00,0.89
7343.00,0.89
7342.00,0.89
7341.00,0.89
7340.00,0.89
7339.00,0.89
7338.00,0.89
7337.00,0.89
7336.00,0.89
7335.00,0.89
7334.00,0.89
7333.00,0.89
7332.00,0.89
7331.00,0.89
7330.00,0.89
7329.00,0.89
7328.00,0.89
7327.00,0.89
7326.00,0.89
7325.00,0.89
7324.00,0.89
7323.00,0.89
7322.00,0.89
7321.00,0.89
7320.00,0.89
7319.00,0.89
7318.00,0.89
7317.00,0.89
7316.00,0.89
7315.00,0.89
7314.00,0.89
7313.00,0.89
7312.00,0.89
7311.00,0.89
7310.00,0.89
7309.00,0.89
7308.00,0.89
7307.00,0.89
7306.00,0.89
7305.00,0.89
7304.00,0.88
7303.00,0.88
7302.00,0.88
7301.00,0.88
7300.00,0.88
7299.00,0.88
7298.00,0.88
7297.00,0.88
7296.00,0.87
7295.00,0.87
7294.00,0.87
7293.00,0.87
7292.00,0.87
7291.00,0.87
7290.00,0.87
7289.00,0.87
7288.00,0.87
7287.00,0.87
7286.00,0.87
7285.00,0.87
7284.00,0.87
7283.00,0.87
7282.00,0.87
7281.00,0.87
7280.00,0.87
7279.00,0.87
7278.00,0.87
7277.00,0.87
7276.00,0.87
7275.00,0.87
7274.00,0.87
7273.00,0.87
7272.00,0.87
7271.00,0.87
7270.00,0.87
7269.00,0.87
7268.00,0.87
7267.00,0.87
7266.00,0.87
7265.00,0.87
7264.00,0.87
7263.00,0.87
7262.00,0.87
7261.00,0.87
7260.00,0.86
7259.00,0.86
7258.00,0.86
7257.00,0.86
7256.00,0.86
7255.00,0.86
7254.00,0.86
7253.00,0.86
7252.00,0.86
7251.00,0.86
7250.00,0.86
7249.00,0.86
7248.00,0.86
7247.00,0.85
7246.00,0.85
7245.00,0.85
7244.00,0.85
7243.00,0.85
7242.00,0.85
7241.00,0.84
7240.00,0.84
7239.00,0.84
7238.00,0.84
7237.00,0.84
7236.00,0.83
7235.00,0.83
7234.00,0.83
7233.00,0.83
7232.00,0.83
7231.00,0.83
7230.00,0.82
7229.00,0.82
7228.00,0.82
7227.00,0.82
7226.00,0.82
7225.00,0.82
7224.00,0.81
7223.00,0.81
7222.00,0.81
7221.00,0.81
7220.00,0.81
7219.00,0.81
7218.00,0.81
7217.00,0.80
7216.00,0.80
7215.00,0.80
7214.00,0.80
7213.00,0.80
7212.00,0.80
7211.00,0.79
7210.00,0.79
7209.00,0.79
7208.00,0.79
7207.00,0.79
7206.00,0.78
7205.00,0.78
7204.00,0.78
7203.00,0.78
7202.00,0.78
7201.00,0.78
7200.00,0.77
7199.00,0.77
7198.00,0.77
7197.00,0.77
7196.00,0.77
7195.00,0.77
7194.00,0.77
7193.00,0.76
7192.00,0.76
7191.00,0.76
7190.00,0.76
7189.00,0.76
7188.00,0.76
7187.00,0.76
7186.00,0.76
7185.00,0.75
7184.00,0.75
7183.00,0.75
7182.00,0.75
7181.00,0.75
7180.00,0.75
7179.00,0.75
7178.00,0.75
7177.00,0.74
7176.00,0.74
7175.00,0.74
7174.00,0.74
7173.00,0.74
7172.00,0.74
7171.00,0.74
7170.00,0.73
7169.00,0.73
7168.00,0.73
7167.00,0.73
7166.00,0.73
7165.00,0.73
7164.00,0.72
7163.00,0.72
7162.00,0.72
7161.00,0.72
7160.00,0.72
7159.00,0.72
7158.00,0.71
7157.00,0.71
7156.00,0.71
7155.00,0.71
7154.00,0.71
7153.00,0.71
7152.00,0.70
7151.00,0.70
7150.00,0.70
7149.00,0.70
7148.00,0.70
7147.00,0.70
7146.00,0.69
7145.00,0.69
7144.00,0.69
7143.00,0.69
7142.00,0.69
7141.00,0.69
7140.00,0.68
7139.00,0.68
7138.00,0.68
7137.00,0.68
7136.00,0.68
7135.00,0.68
7134.00,0.68
7133.00,0.68
7132.00,0.68
7131.00,0.68
7130.00,0.68
7129.00,0.68
7128.00,0.67
7127.00,0.67
7126.00,0.67
7125.00,0.67
7124.00,0.67
7123.00,0.67
7122.00,0.67
7121.00,0.66
7120.00,0.66
7119.00,0.66
7118.00,0.66
7117.00,0.66
7116.00,0.65
7115.00,0.65
7114.00,0.65
7113.00,0.65
7112.00,0.65
7111.00,0.64
7110.00,0.64
7109.00,0.64
7108.00,0.64
7107.00,0.64
7106.00,0.64
7105.00,0.64
7104.00,0.63
7103.00,0.63
7102.00,0.63
7101.00,0.63
7100.00,0.63
7099.00,0.63
7098.00,0.63
7097.00,0.63
7096.00,0.63
7095.00,0.63
7094.00,0.62
7093.00,0.62
7092.00,0.62
7091.00,0.62
7090.00,0.62
7089.00,0.62
7088.00,0.62
7087.00,0.62
7086.00,0.62
7085.00,0.62
7084.00,0.62
7083.00,0.62
7082.00,0.61
7081.00,0.61
7080.00,0.61
7079.00,0.61
7078.00,0.61
7077.00,0.61
7076.00,0.61
7075.00,0.61
7074.00,0.61
7073.00,0.60
7072.00,0.60
7071.00,0.60
7070.00,0.60
7069.00,0.60
7068.00,0.60
7067.00,0.60
7066.00,0.60
7065.00,0.60
7064.00,0.59
7063.00,0.59
7062.00,0.59
7061.00,0.59
7060.00,0.59
7059.00,0.59
7058.00,0.59
7057.00,0.59
7056.00,0.59
7055.00,0.59
7054.00,0.58
7053.00,0.58
7052.00,0.58
7051.00,0.58
7050.00,0.58
7049.00,0.58
7048.00,0.58
7047.00,0.58
7046.00,0.58
7045.00,0.58
7044.00,0.58
7043.00,0.58
7042.00,0.58
7041.00,0.58
7040.00,0.58
7039.00,0.58
7038.00,0.58
7037.00,0.58
7036.00,0.57
7035.00,0.57
7034.00,0.57
7033.00,0.57
7032.00,0.57
7031.00,0.57
7030.00,0.57
7029.00,0.57
7028.00,0.57
7027.00,0.57
7026.00,0.57
7025.00,0.56
7024.00,0.56
7023.00,0.56
7022.00,0.56
7021.00,0.56
7020.00,0.56
7019.00,0.56
7018.00,0.56
7017.00,0.56
7016.00,0.56
7015.00,0.56
7014.00,0.55
7013.00,0.55
7012.00,0.55
7011.00,0.55
7010.00,0.55
7009.00,0.55
7008.00,0.55
7007.00,0.55
7006.00,0.55
7005.00,0.55
7004.00,0.55
7003.00,0.55
7002.00,0.55
7001.00,0.55
7000.00,0.55
6999.00,0.55
6998.00,0.55
6997.00,0.55
6996.00,0.55
6995.00,0.55
6994.00,0.55
6993.00,0.54
6992.00,0.54
6991.00,0.54
6990.00,0.54
6989.00,0.54
6988.00,0.54
6987.00,0.54
6986.00,0.54
6985.00,0.54
6984.00,0.54
6983.00,0.54
6982.00,0.54
6981.00,0.54
6980.00,0.54
6979.00,0.54
6978.00,0.54
6977.00,0.54
6976.00,0.54
6975.00,0.54
6974.00,0.54
6973.00,0.54
6972.00,0.54
6971.00,0.54
6970.00,0.54
6969.00,0.53
6968.00,0.53
6967.00,0.53
6966.00,0.53
6965.00,0.53
6964.00,0.53
6963.00,0.53
6962.00,0.53
6961.00,0.53
6960.00,0.53
6959.00,0.53
6958.00,0.53
6957.00,0.53
6956.00,0.53
6955.00,0.53
6954.00,0.53
6953.00,0.53
6952.00,0.52
6951.00,0.52
6950.00,0.52
6949.00,0.52
6948.00,0.52
6947.00,0.52
6946.00,0.52
6945.00,0.52
6944.00,0.52
6943.00,0.52
6942.00,0.52
6941.00,0.52
6940.00,0.52
6939.00,0.52
6938.00,0.52
6937.00,0.52
6936.00,0.52
6935.00,0.52
6934.00,0.52
6933.00,0.52
6932.00,0.52
6931.00,0.52
6930.00,0.52
6929.00,0.52
6928.00,0.52
6927.00,0.52
6926.00,0.52
6925.00,0.52
6924.00,0.52
6923.00,0.52
6922.00,0.52
6921.00,0.52
6920.00,0.52
6919.00,0.52
6918.00,0.52
6917.00,0.52
6916.00,0.52
6915.00,0.52
6914.00,0.52
6913.00,0.52
6912.00,0.52
6911.00,0.51
6910.00,0.51
6909.00,0.51
6908.00,0.51
6907.00,0.51
6906.00,0.51
6905.00,0.51
6904.00,0.51
6903.00,0.51
6902.00,0.51
6901.00,0.51
6900.00,0.51
6899.00,0.51
6898.00,0.51
6897.00,0.51
6896.00,0.51
6895.00,0.51
6894.00,0.51
6893.00,0.51
6892.00,0.51
6891.00,0.51
6890.00,0.51
6889.00,0.51
6888.00,0.51
6887.00,0.51
6886.00,0.51
6885.00,0.51
6884.00,0.51
6883.00,0.51
6882.00,0.51
6881.00,0.51
6880.00,0.51
6879.00,0.51
6878.00,0.51
6877.00,0.51
6876.00,0.51
6875.00,0.51
6874.00,0.51
6873.00,0.51
6872.00,0.51
6871.00,0.51
6870.00,0.51
6869.00,0.51
6868.00,0.51
6867.00,0.51
6866.00,0.51
6865.00,0.51
6864.00,0.51
6863.00,0.51
6862.00,0.51
6861.00,0.51
6860.00,0.51
6859.00,0.51
6858.00,0.51
6857.00,0.51
6856.00,0.51
6855.00,0.51
6854.00,0.51
6853.00,0.51
6852.00,0.51
6851.00,0.51
6850.00,0.51
6849.00,0.51
6848.00,0.51
6847.00,0.51
6846.00,0.51
6845.00,0.51
6844.00,0.51
6843.00,0.51
6842.00,0.51
6841.00,0.51
6840.00,0.51
6839.00,0.51
6838.00,0.51
6837.00,0.51
6836.00,0.51
6835.00,0.51
6834.00,0.51
6833.00,0.51
6832.00,0.51
6831.00,0.51
6830.00,0.51
6829.00,0.51
6828.00,0.51
6827.00,0.51
6826.00,0.51
6825.00,0.51
6824.00,0.51
6823.00,0.51
6822.00,0.51
6821.00,0.52
6820.00,0.52
6819.00,0.52
6818.00,0.52
6817.00,0.52
6816.00,0.52
6815.00,0.52
6814.00,0.52
6813.00,0.52
6812.00,0.52
6811.00,0.52
6810.00,0.52
6809.00,0.52
6808.00,0.52
6807.00,0.52
6806.00,0.52
6805.00,0.52
6804.00,0.52
6803.00,0.52
6802.00,0.52
6801.00,0.52
6800.00,0.52
6799.00,0.52
6798.00,0.52
6797.00,0.52
6796.00,0.52
6795.00,0.52
6794.00,0.53
6793.00,0.53
6792.00,0.53
6791.00,0.53
6790.00,0.53
6789.00,0.53
6788.00,0.53
6787.00,0.53
6786.00,0.53
6785.00,0.53
6784.00,0.53
6783.00,0.53
6782.00,0.53
6781.00,0.53
6780.00,0.53
6779.00,0.53
6778.00,0.53
6777.00,0.53
6776.00,0.53
6775.00,0.53
6774.00,0.53
6773.00,0.53
6772.00,0.53
6771.00,0.53
6770.00,0.53
6769.00,0.54
6768.00,0.54
6767.00,0.54
6766.00,0.54
6765.00,0.54
6764.00,0.54
6763.00,0.54
6762.00,0.54
6761.00,0.54
6760.00,0.54
6759.00,0.54
6758.00,0.54
6757.00,0.54
6756.00,0.54
6755.00,0.54
6754.00,0.54
6753.00,0.54
6752.00,0.54
6751.00,0.54
6750.00,0.54
6749.00,0.54
6748.00,0.54
6747.00,0.54
6746.00,0.54
6745.00,0.54
6744.00,0.54
6743.00,0.55
6742.00,0.55
6741.00,0.55
6740.00,0.55
6739.00,0.55
6738.00,0.55
6737.00,0.55
6736.00,0.55
6735.00,0.56
6734.00,0.56
6733.00,0.56
6732.00,0.56
6731.00,0.56
6730.00,0.56
6729.00,0.56
6728.00,0.56
6727.00,0.56
6726.00,0.56
6725.00,0.56
6724.00,0.56
6723.00,0.56
6722.00,0.56
6721.00,0.56
6720.00,0.56
6719.00,0.56
6718.00,0.56
6717.00,0.56
6716.00,0.56
6715.00,0.56
6714.00,0.57
6713.00,0.57
6712.00,0.57
6711.00,0.57
6710.00,0.57
6709.00,0.57
6708.00,0.57
6707.00,0.57
6706.00,0.57
6705.00,0.57
6704.00,0.57
6703.00,0.57
6702.00,0.57
6701.00,0.57
6700.00,0.57
6699.00,0.57
6698.00,0.57
6697.00,0.57
6696.00,0.57
6695.00,0.58
6694.00,0.58
6693.00,0.58
6692.00,0.58
6691.00,0.58
6690.00,0.58
6689.00,0.58
6688.00,0.58
6687.00,0.58
6686.00,0.58
6685.00,0.58
6684.00,0.58
6683.00,0.58
6682.00,0.58
6681.00,0.58
6680.00,0.58
6679.00,0.58
6678.00,0.58
6677.00,0.58
6676.00,0.58
6675.00,0.58
6674.00,0.58
6673.00,0.58
6672.00,0.58
6671.00,0.58
6670.00,0.59
6669.00,0.59
6668.00,0.59
6667.00,0.59
6666.00,0.59
6665.00,0.59
6664.00,0.59
6663.00,0.59
6662.00,0.59
6661.00,0.59
6660.00,0.59
6659.00,0.59
6658.00,0.59
6657.00,0.59
6656.00,0.60
6655.00,0.60
6654.00,0.60
6653.00,0.60
6652.00,0.60
6651.00,0.60
6650.00,0.60
6649.00,0.60
6648.00,0.60
6647.00,0.60
6646.00,0.60
6645.00,0.60
6644.00,0.60
6643.00,0.60
6642.00,0.60
6641.00,0.61
6640.00,0.61
6639.00,0.61
6638.00,0.61
6637.00,0.61
6636.00,0.61
6635.00,0.61
6634.00,0.61
6633.00,0.61
6632.00,0.61
6631.00,0.61
6630.00,0.61
6629.00,0.62
6628.00,0.62
6627.00,0.62
6626.00,0.62
6625.00,0.62
6624.00,0.62
6623.00,0.62
6622.00,0.62
6621.00,0.62
6620.00,0.62
6619.00,0.62
6618.00,0.62
6617.00,0.62
6616.00,0.62
6615.00,0.62
6614.00,0.62
6613.00,0.62
6612.00,0.62
6611.00,0.62
6610.00,0.62
6609.00,0.62
6608.00,0.62
6607.00,0.62
6606.00,0.62
6605.00,0.63
6604.00,0.63
6603.00,0.63
6602.00,0.63
6601.00,0.63
6600.00,0.63
6599.00,0.63
6598.00,0.63
6597.00,0.63
6596.00,0.63
6595.00,0.63
6594.00,0.63
6593.00,0.63
6592.00,0.63
6591.00,0.63
6590.00,0.64
6589.00,0.64
6588.00,0.64
6587.00,0.64
6586.00,0.64
6585.00,0.64
6584.00,0.64
6583.00,0.64
6582.00,0.64
6581.00,0.64
6580.00,0.64
6579.00,0.64
6578.00,0.65
6577.00,0.65
6576.00,0.65
6575.00,0.65
6574.00,0.65
6573.00,0.65
6572.00,0.65
6571.00,0.65
6570.00,0.65
6569.00,0.65
6568.00,0.65
6567.00,0.65
6566.00,0.65
6565.00,0.65
6564.00,0.65
6563.00,0.66
6562.00,0.66
6561.00,0.66
6560.00,0.66
6559.00,0.66
6558.00,0.66
6557.00,0.66
6556.00,0.66
6555.00,0.66
6554.00,0.66
6553.00,0.66
6552.00,0.66
6551.00,0.66
6550.00,0.66
6549.00,0.66
6548.00,0.66
6547.00,0.66
6546.00,0.66
6545.00,0.66
6544.00,0.66
6543.00,0.66
6542.00,0.67
6541.00,0.67
6540.00,0.67
6539.00,0.67
6538.00,0.67
6537.00,0.67
6536.00,0.67
6535.00,0.67
6534.00,0.67
6533.00,0.67
6532.00,0.67
6531.00,0.67
6530.00,0.67
6529.00,0.67
6528.00,0.67
6527.00,0.67
6526.00,0.67
6525.00,0.67
6524.00,0.67
6523.00,0.67
6522.00,0.67
6521.00,0.67
6520.00,0.67
6519.00,0.67
6518.00,0.67
6517.00,0.67
6516.00,0.67
6515.00,0.68
6514.00,0.68
6513.00,0.68
6512.00,0.68
6511.00,0.68
6510.00,0.68
6509.00,0.68
6508.00,0.68
6507.00,0.68
6506.00,0.68
6505.00,0.68
6504.00,0.68
6503.00,0.68
6502.00,0.68
6501.00,0.68
6500.00,0.68
6499.00,0.68
6498.00,0.68
6497.00,0.68
6496.00,0.68
6495.00,0.68
6494.00,0.69
6493.00,0.69
6492.00,0.69
6491.00,0.69
6490.00,0.69
6489.00,0.69
6488.00,0.69
6487.00,0.69
6486.00,0.69
6485.00,0.69
6484.00,0.69
6483.00,0.69
6482.00,0.69
6481.00,0.69
6480.00,0.69
6479.00,0.69
6478.00,0.69
6477.00,0.69
6476.00,0.69
6475.00,0.69
6474.00,0.69
6473.00,0.69
6472.00,0.69
6471.00,0.69
6470.00,0.69
6469.00,0.69
6468.00,0.69
6467.00,0.69
6466.00,0.69
6465.00,0.69
6464.00,0.69
6463.00,0.69
6462.00,0.69
6461.00,0.69
6460.00,0.69
6459.00,0.69
6458.00,0.69
6457.00,0.69
6456.00,0.69
6455.00,0.70
6454.00,0.70
6453.00,0.70
6452.00,0.70
6451.00,0.70
6450.00,0.70
6449.00,0.70
6448.00,0.70
6447.00,0.70
6446.00,0.70
6445.00,0.70
6444.00,0.70
6443.00,0.70
6442.00,0.70
6441.00,0.70
6440.00,0.70
6439.00,0.70
6438.00,0.70
6437.00,0.70
6436.00,0.70
6435.00,0.70
6434.00,0.70
6433.00,0.71
6432.00,0.71
6431.00,0.71
6430.00,0.71
6429.00,0.71
6428.00,0.71
6427.00,0.71
6426.00,0.71
6425.00,0.71
6424.00,0.71
6423.00,0.71
6422.00,0.71
6421.00,0.71
6420.00,0.71
6419.00,0.71
6418.00,0.71
6417.00,0.71
6416.00,0.71
6415.00,0.71
6414.00,0.71
6413.00,0.71
6412.00,0.71
6411.00,0.71
6410.00,0.71
6409.00,0.71
6408.00,0.71
6407.00,0.71
6406.00,0.71
6405.00,0.71
6404.00,0.71
6403.00,0.71
6402.00,0.71
6401.00,0.71
6400.00,0.71
6399.00,0.71
6398.00,0.71
6397.00,0.71
6396.00,0.71
6395.00,0.71
6394.00,0.71
6393.00,0.71
6392.00,0.71
6391.00,0.71
6390.00,0.71
6389.00,0.71
6388.00,0.71
6387.00,0.71
6386.00,0.71
6385.00,0.72
6384.00,0.72
6383.00,0.72
6382.00,0.72
6381.00,0.72
6380.00,0.72
6379.00,0.72
6378.00,0.72
6377.00,0.72
6376.00,0.72
6375.00,0.72
6374.00,0.72
6373.00,0.72
6372.00,0.72
6371.00,0.72
6370.00,0.72
6369.00,0.72
6368.00,0.72
6367.00,0.72
6366.00,0.72
6365.00,0.72
6364.00,0.72
6363.00,0.72
6362.00,0.73
6361.00,0.73
6360.00,0.73
6359.00,0.73
6358.00,0.73
6357.00,0.73
6356.00,0.73
6355.00,0.73
6354.00,0.73
6353.00,0.73
6352.00,0.73
6351.00,0.73
6350.00,0.73
6349.00,0.73
6348.00,0.73
6347.00,0.73
6346.00,0.73
6345.00,0.73
6344.00,0.73
6343.00,0.73
6342.00,0.73
6341.00,0.73
6340.00,0.74
6339.00,0.74
6338.00,0.74
6337.00,0.74
6336.00,0.74
6335.00,0.74
6334.00,0.74
6333.00,0.74
6332.00,0.74
6331.00,0.74
6330.00,0.74
6329.00,0.74
6328.00,0.74
6327.00,0.74
6326.00,0.74
6325.00,0.74
6324.00,0.74
6323.00,0.74
6322.00,0.74
6321.00,0.74
6320.00,0.74
6319.00,0.74
6318.00,0.75
6317.00,0.75
6316.00,0.75
6315.00,0.75
6314.00,0.75
6313.00,0.75
6312.00,0.75
6311.00,0.75
6310.00,0.75
6309.00,0.75
6308.00,0.75
6307.00,0.75
6306.00,0.75
6305.00,0.75
6304.00,0.75
6303.00,0.75
6302.00,0.75
6301.00,0.75
6300.00,0.75
6299.00,0.76
6298.00,0.76
6297.00,0.76
6296.00,0.76
6295.00,0.76
6294.00,0.76
6293.00,0.76
6292.00,0.76
6291.00,0.76
6290.00,0.76
6289.00,0.76
6288.00,0.76
6287.00,0.76
6286.00,0.76
6285.00,0.76
6284.00,0.76
6283.00,0.77
6282.00,0.77
6281.00,0.77
6280.00,0.77
6279.00,0.77
6278.00,0.77
6277.00,0.77
6276.00,0.77
6275.00,0.77
6274.00,0.77
6273.00,0.77
6272.00,0.77
6271.00,0.77
6270.00,0.77
6269.00,0.77
6268.00,0.77
6267.00,0.77
6266.00,0.77
6265.00,0.77
6264.00,0.77
6263.00,0.77
6262.00,0.78
6261.00,0.78
6260.00,0.78
6259.00,0.78
6258.00,0.78
6257.00,0.78
6256.00,0.78
6255.00,0.78
6254.00,0.78
6253.00,0.78
6252.00,0.78
6251.00,0.78
6250.00,0.78
6249.00,0.78
6248.00,0.78
6247.00,0.79
6246.00,0.79
6245.00,0.79
6244.00,0.79
6243.00,0.79
6242.00,0.79
6241.00,0.79
6240.00,0.79
6239.00,0.79
6238.00,0.79
6237.00,0.79
6236.00,0.79
6235.00,0.80
6234.00,0.80
6233.00,0.80
6232.00,0.80
6231.00,0.80
6230.00,0.80
6229.00,0.80
6228.00,0.80
6227.00,0.80
6226.00,0.80
6225.00,0.80
6224.00,0.80
6223.00,0.80
6222.00,0.80
6221.00,0.80
6220.00,0.80
6219.00,0.80
6218.00,0.80
6217.00,0.81
6216.00,0.81
6215.00,0.81
6214.00,0.81
6213.00,0.81
6212.00,0.81
6211.00,0.81
6210.00,0.81
6209.00,0.81
6208.00,0.81
6207.00,0.81
6206.00,0.81
6205.00,0.81
6204.00,0.81
6203.00,0.81
6202.00,0.81
6201.00,0.81
6200.00,0.81
6199.00,0.81
6198.00,0.81
6197.00,0.82
6196.00,0.82
6195.00,0.82
6194.00,0.82
6193.00,0.82
6192.00,0.82
6191.00,0.82
6190.00,0.82
6189.00,0.82
6188.00,0.82
6187.00,0.82
6186.00,0.82
6185.00,0.82
6184.00,0.82
6183.00,0.83
6182.00,0.83
6181.00,0.83
6180.00,0.83
6179.00,0.83
6178.00,0.83
6177.00,0.83
6176.00,0.83
6175.00,0.83
6174.00,0.83
6173.00,0.83
6172.00,0.83
6171.00,0.83
6170.00,0.83
6169.00,0.83
6168.00,0.83
6167.00,0.83
6166.00,0.83
6165.00,0.84
6164.00,0.84
6163.00,0.84
6162.00,0.84
6161.00,0.84
6160.00,0.84
6159.00,0.84
6158.00,0.84
6157.00,0.84
6156.00,0.84
6155.00,0.84
6154.00,0.85
6153.00,0.85
6152.00,0.85
6151.00,0.85
6150.00,0.85
6149.00,0.85
6148.00,0.85
6147.00,0.85
6146.00,0.85
6145.00,0.85
6144.00,0.85
6143.00,0.85
6142.00,0.85
6141.00,0.85
6140.00,0.85
6139.00,0.85
6138.00,0.85
6137.00,0.85
6136.00,0.85
6135.00,0.86
6134.00,0.86
6133.00,0.86
6132.00,0.86
6131.00,0.86
6130.00,0.86
6129.00,0.86
6128.00,0.86
6127.00,0.86
6126.00,0.86
6125.00,0.86
6124.00,0.86
6123.00,0.87
6122.00,0.87
6121.00,0.87
6120.00,0.87
6119.00,0.87
6118.00,0.87
6117.00,0.87
6116.00,0.87
6115.00,0.87
6114.00,0.87
6113.00,0.88
6112.00,0.88
6111.00,0.88
6110.00,0.88
6109.00,0.88
6108.00,0.88
6107.00,0.88
6106.00,0.88
6105.00,0.88
6104.00,0.88
6103.00,0.88
6102.00,0.88
6101.00,0.88
6100.00,0.88
6099.00,0.88
6098.00,0.88
6097.00,0.88
6096.00,0.88
6095.00,0.88
6094.00,0.88
6093.00,0.88
6092.00,0.88
6091.00,0.89
6090.00,0.89
6089.00,0.89
6088.00,0.89
6087.00,0.89
6086.00,0.89
6085.00,0.89
6084.00,0.89
6083.00,0.89
6082.00,0.89
6081.00,0.89
6080.00,0.89
6079.00,0.89
6078.00,0.89
6077.00,0.89
6076.00,0.89
6075.00,0.89
6074.00,0.89
6073.00,0.90
6072.00,0.90
6071.00,0.90
6070.00,0.90
6069.00,0.90
6068.00,0.90
6067.00,0.90
6066.00,0.90
6065.00,0.90
6064.00,0.90
6063.00,0.90
6062.00,0.90
6061.00,0.90
6060.00,0.90
6059.00,0.90
6058.00,0.90
6057.00,0.91
6056.00,0.91
6055.00,0.91
6054.00,0.91
6053.00,0.91
6052.00,0.91
6051.00,0.91
6050.00,0.91
6049.00,0.91
6048.00,0.91
6047.00,0.91
6046.00,0.91
6045.00,0.91
6044.00,0.91
6043.00,0.91
6042.00,0.91
6041.00,0.91
6040.00,0.91
6039.00,0.91
6038.00,0.91
6037.00,0.91
6036.00,0.91
6035.00,0.91
6034.00,0.91
6033.00,0.91
6032.00,0.91
6031.00,0.91
6030.00,0.91
6029.00,0.91
6028.00,0.91
6027.00,0.91
6026.00,0.91
6025.00,0.91
6024.00,0.91
6023.00,0.91
6022.00,0.91
6021.00,0.91
6020.00,0.91
6019.00,0.91
6018.00,0.91
6017.00,0.91
6016.00,0.91
6015.00,0.91
6014.00,0.91
6013.00,0.91
6012.00,0.91
6011.00,0.91
6010.00,0.91
6009.00,0.91
6008.00,0.91
6007.00,0.91
6006.00,0.91
6005.00,0.91
6004.00,0.91
6003.00,0.91
6002.00,0.91
6001.00,0.91
6000.00,0.91
5999.00,0.91
5998.00,0.91
5997.00,0.91
5996.00,0.91
5995.00,0.91
5994.00,0.91
5993.00,0.91
5992.00,0.91
5991.00,0.90
5990.00,0.90
5989.00,0.90
5988.00,0.90
5987.00,0.90
5986.00,0.90
5985.00,0.90
5984.00,0.90
5983.00,0.90
5982.00,0.89
5981.00,0.89
5980.00,0.89
5979.00,0.89
5978.00,0.89
5977.00,0.89
5976.00,0.88
5975.00,0.88
5974.00,0.88
5973.00,0.88
5972.00,0.87
5971.00,0.87
5970.00,0.87
5969.00,0.87
5968.00,0.86
5967.00,0.86
5966.00,0.86
5965.00,0.85
5964.00,0.85
5963.00,0.85
5962.00,0.84
5961.00,0.84
5960.00,0.84
5959.00,0.83
5958.00,0.83
5957.00,0.83
5956.00,0.82
5955.00,0.82
5954.00,0.82
5953.00,0.82
5952.00,0.81
5951.00,0.81
5950.00,0.81
5949.00,0.80
5948.00,0.80
5947.00,0.80
5946.00,0.80
5945.00,0.80
5944.00,0.79
5943.00,0.79
5942.00,0.79
5941.00,0.79
5940.00,0.79
5939.00,0.79
5938.00,0.79
5937.00,0.79
5936.00,0.79
5935.00,0.79
5934.00,0.79
5933.00,0.79
5932.00,0.78
5931.00,0.78
5930.00,0.78
5929.00,0.78
5928.00,0.78
5927.00,0.78
5926.00,0.78
5925.00,0.78
5924.00,0.78
5923.00,0.78
5922.00,0.78
5921.00,0.78
5920.00,0.77
5919.00,0.77
5918.00,0.77
5917.00,0.77
5916.00,0.77
5915.00,0.77
5914.00,0.77
5913.00,0.76
5912.00,0.76
5911.00,0.76
5910.00,0.76
5909.00,0.76
5908.00,0.76
5907.00,0.76
5906.00,0.76
5905.00,0.76
5904.00,0.76
5903.00,0.76
5902.00,0.76
5901.00,0.76
5900.00,0.76
5899.00,0.76
5898.00,0.76
5897.00,0.76
5896.00,0.76
5895.00,0.76
5894.00,0.76
5893.00,0.76
5892.00,0.76
5891.00,0.76
5890.00,0.77
5889.00,0.77
5888.00,0.77
5887.00,0.77
5886.00,0.77
5885.00,0.77
5884.00,0.77
5883.00,0.78
5882.00,0.78
5881.00,0.78
5880.00,0.78
5879.00,0.78
5878.00,0.78
5877.00,0.79
5876.00,0.79
5875.00,0.79
5874.00,0.79
5873.00,0.79
5872.00,0.79
5871.00,0.79
5870.00,0.79
5869.00,0.80
5868.00,0.80
5867.00,0.80
5866.00,0.80
5865.00,0.80
5864.00,0.80
5863.00,0.80
5862.00,0.80
5861.00,0.80
5860.00,0.80
5859.00,0.80
5858.00,0.80
5857.00,0.80
5856.00,0.80
5855.00,0.80
5854.00,0.80
5853.00,0.81
5852.00,0.81
5851.00,0.81
5850.00,0.81
5849.00,0.81
5848.00,0.81
5847.00,0.81
5846.00,0.81
5845.00,0.81
5844.00,0.81
5843.00,0.81
5842.00,0.81
5841.00,0.81
5840.00,0.81
5839.00,0.81
5838.00,0.81
5837.00,0.81
5836.00,0.81
5835.00,0.81
5834.00,0.81
5833.00,0.81
5832.00,0.81
5831.00,0.81
5830.00,0.81
5829.00,0.81
5828.00,0.81
5827.00,0.81
5826.00,0.81
5825.00,0.81
5824.00,0.81
5823.00,0.81
5822.00,0.81
5821.00,0.81
5820.00,0.81
5819.00,0.81
5818.00,0.81
5817.00,0.81
5816.00,0.81
5815.00,0.81
5814.00,0.81
5813.00,0.81
5812.00,0.81
5811.00,0.81
5810.00,0.81
5809.00,0.81
5808.00,0.81
5807.00,0.81
5806.00,0.81
5805.00,0.81
5804.00,0.80
5803.00,0.80
5802.00,0.80
5801.00,0.80
5800.00,0.80
5799.00,0.80
5798.00,0.80
5797.00,0.80
5796.00,0.80
5795.00,0.80
5794.00,0.80
5793.00,0.79
5792.00,0.79
5791.00,0.79
5790.00,0.79
5789.00,0.79
5788.00,0.79
5787.00,0.79
5786.00,0.79
5785.00,0.79
5784.00,0.78
5783.00,0.78
5782.00,0.78
5781.00,0.78
5780.00,0.78
5779.00,0.78
5778.00,0.78
5777.00,0.78
5776.00,0.78
5775.00,0.78
5774.00,0.78
5773.00,0.78
5772.00,0.78
5771.00,0.78
5770.00,0.78
5769.00,0.78
5768.00,0.78
5767.00,0.78
5766.00,0.78
5765.00,0.78
5764.00,0.78
5763.00,0.78
5762.00,0.78
5761.00,0.79
5760.00,0.79
5759.00,0.79
5758.00,0.79
5757.00,0.79
5756.00,0.79
5755.00,0.79
5754.00,0.80
5753.00,0.80
5752.00,0.80
5751.00,0.80
5750.00,0.80
5749.00,0.80
5748.00,0.81
5747.00,0.81
5746.00,0.81
5745.00,0.81
5744.00,0.81
5743.00,0.81
5742.00,0.82
5741.00,0.82
5740.00,0.82
5739.00,0.82
5738.00,0.82
5737.00,0.82
5736.00,0.82
5735.00,0.82
5734.00,0.82
5733.00,0.82
5732.00,0.83
5731.00,0.83
5730.00,0.83
5729.00,0.83
5728.00,0.83
5727.00,0.83
5726.00,0.83
5725.00,0.83
5724.00,0.83
5723.00,0.83
5722.00,0.83
5721.00,0.83
5720.00,0.83
5719.00,0.83
5718.00,0.83
5717.00,0.83
5716.00,0.83
5715.00,0.83
5714.00,0.83
5713.00,0.83
5712.00,0.83
5711.00,0.83
5710.00,0.83
5709.00,0.83
5708.00,0.83
5707.00,0.83
5706.00,0.83
5705.00,0.83
5704.00,0.83
5703.00,0.83
5702.00,0.83
5701.00,0.83
5700.00,0.83
5699.00,0.83
5698.00,0.83
5697.00,0.83
5696.00,0.83
5695.00,0.83
5694.00,0.82
5693.00,0.82
5692.00,0.82
5691.00,0.82
5690.00,0.82
5689.00,0.82
5688.00,0.82
5687.00,0.82
5686.00,0.82
5685.00,0.82
5684.00,0.82
5683.00,0.82
5682.00,0.82
5681.00,0.82
5680.00,0.81
5679.00,0.81
5678.00,0.81
5677.00,0.81
5676.00,0.81
5675.00,0.81
5674.00,0.81
5673.00,0.81
5672.00,0.81
5671.00,0.81
5670.00,0.81
5669.00,0.81
5668.00,0.82
5667.00,0.82
5666.00,0.82
5665.00,0.82
5664.00,0.82
5663.00,0.82
5662.00,0.82
5661.00,0.82
5660.00,0.82
5659.00,0.82
5658.00,0.82
5657.00,0.82
5656.00,0.83
5655.00,0.83
5654.00,0.83
5653.00,0.83
5652.00,0.83
5651.00,0.83
5650.00,0.83
5649.00,0.83
5648.00,0.83
5647.00,0.83
5646.00,0.83
5645.00,0.83
5644.00,0.83
5643.00,0.84
5642.00,0.84
5641.00,0.84
5640.00,0.84
5639.00,0.84
5638.00,0.84
5637.00,0.84
5636.00,0.84
5635.00,0.84
5634.00,0.84
5633.00,0.84
5632.00,0.85
5631.00,0.85
5630.00,0.85
5629.00,0.85
5628.00,0.85
5627.00,0.85
5626.00,0.85
5625.00,0.85
5624.00,0.85
5623.00,0.85
5622.00,0.85
5621.00,0.85
5620.00,0.85
5619.00,0.85
5618.00,0.85
5617.00,0.86
5616.00,0.86
5615.00,0.86
5614.00,0.86
5613.00,0.86
5612.00,0.86
5611.00,0.86
5610.00,0.86
5609.00,0.86
5608.00,0.86
5607.00,0.86
5606.00,0.86
5605.00,0.86
5604.00,0.86
5603.00,0.86
5602.00,0.86
5601.00,0.86
5600.00,0.86
5599.00,0.86
5598.00,0.87
5597.00,0.87
5596.00,0.87
5595.00,0.87
5594.00,0.87
5593.00,0.87
5592.00,0.87
5591.00,0.87
5590.00,0.87
5589.00,0.87
5588.00,0.88
5587.00,0.88
5586.00,0.88
5585.00,0.88
5584.00,0.88
5583.00,0.88
5582.00,0.88
5581.00,0.88
5580.00,0.88
5579.00,0.88
5578.00,0.88
5577.00,0.88
5576.00,0.88
5575.00,0.89
5574.00,0.89
5573.00,0.89
5572.00,0.89
5571.00,0.89
5570.00,0.89
5569.00,0.89
5568.00,0.89
5567.00,0.89
5566.00,0.89
5565.00,0.89
5564.00,0.89
5563.00,0.89
5562.00,0.89
5561.00,0.89
5560.00,0.89
5559.00,0.89
5558.00,0.89
5557.00,0.89
5556.00,0.89
5555.00,0.90
5554.00,0.90
5553.00,0.90
5552.00,0.90
5551.00,0.90
5550.00,0.90
5549.00,0.90
5548.00,0.90
5547.00,0.90
5546.00,0.90
5545.00,0.90
5544.00,0.90
5543.00,0.90
5542.00,0.90
5541.00,0.90
5540.00,0.90
5539.00,0.90
5538.00,0.90
5537.00,0.90
5536.00,0.91
5535.00,0.91
5534.00,0.91
5533.00,0.91
5532.00,0.91
5531.00,0.91
5530.00,0.91
5529.00,0.91
5528.00,0.91
5527.00,0.91
5526.00,0.91
5525.00,0.91
5524.00,0.91
5523.00,0.91
5522.00,0.91
5521.00,0.91
5520.00,0.91
5519.00,0.91
5518.00,0.91
5517.00,0.91
5516.00,0.91
5515.00,0.91
5514.00,0.91
5513.00,0.91
5512.00,0.91
5511.00,0.91
5510.00,0.91
5509.00,0.91
5508.00,0.91
5507.00,0.91
5506.00,0.91
5505.00,0.91
5504.00,0.91
5503.00,0.91
5502.00,0.91
5501.00,0.91
5500.00,0.91
5499.00,0.91
5498.00,0.91
5497.00,0.91
5496.00,0.92
5495.00,0.92
5494.00,0.92
5493.00,0.92
5492.00,0.92
5491.00,0.92
5490.00,0.92
5489.00,0.92
5488.00,0.92
5487.00,0.92
5486.00,0.92
5485.00,0.92
5484.00,0.92
5483.00,0.92
5482.00,0.92
5481.00,0.92
5480.00,0.92
5479.00,0.92
5478.00,0.93
5477.00,0.93
5476.00,0.93
5475.00,0.93
5474.00,0.93
5473.00,0.93
5472.00,0.93
5471.00,0.93
5470.00,0.93
5469.00,0.93
5468.00,0.93
5467.00,0.93
5466.00,0.93
5465.00,0.93
5464.00,0.93
5463.00,0.93
5462.00,0.93
5461.00,0.93
5460.00,0.93
5459.00,0.93
5458.00,0.93
5457.00,0.93
5456.00,0.93
5455.00,0.93
5454.00,0.93
5453.00,0.93
5452.00,0.93
5451.00,0.93
5450.00,0.93
5449.00,0.93
5448.00,0.93
5447.00,0.93
5446.00,0.93
5445.00,0.93
5444.00,0.93
5443.00,0.93
5442.00,0.93
5441.00,0.93
5440.00,0.93
5439.00,0.93
5438.00,0.93
5437.00,0.93
5436.00,0.93
5435.00,0.94
5434.00,0.94
5433.00,0.94
5432.00,0.94
5431.00,0.94
5430.00,0.94
5429.00,0.94
5428.00,0.94
5427.00,0.94
5426.00,0.94
5425.00,0.94
5424.00,0.94
5423.00,0.94
5422.00,0.94
5421.00,0.94
5420.00,0.94
5419.00,0.94
5418.00,0.94
5417.00,0.94
5416.00,0.94
5415.00,0.94
5414.00,0.94
5413.00,0.94
5412.00,0.94
5411.00,0.94
5410.00,0.94
5409.00,0.94
5408.00,0.94
5407.00,0.94
5406.00,0.94
5405.00,0.94
5404.00,0.94
5403.00,0.94
5402.00,0.94
5401.00,0.94
5400.00,0.94
5399.00,0.94
5398.00,0.94
5397.00,0.94
5396.00,0.94
5395.00,0.94
5394.00,0.93
5393.00,0.93
5392.00,0.93
5391.00,0.93
5390.00,0.93
5389.00,0.93
5388.00,0.93
5387.00,0.93
5386.00,0.93
5385.00,0.93
5384.00,0.93
5383.00,0.92
5382.00,0.92
5381.00,0.92
5380.00,0.92
5379.00,0.92
5378.00,0.92
5377.00,0.92
5376.00,0.92
5375.00,0.91
5374.00,0.91
5373.00,0.91
5372.00,0.91
5371.00,0.91
5370.00,0.91
5369.00,0.90
5368.00,0.90
5367.00,0.90
5366.00,0.90
5365.00,0.90
5364.00,0.89
5363.00,0.89
5362.00,0.89
5361.00,0.88
5360.00,0.88
5359.00,0.88
5358.00,0.88
5357.00,0.87
5356.00,0.87
5355.00,0.86
5354.00,0.86
5353.00,0.86
5352.00,0.85
5351.00,0.85
5350.00,0.84
5349.00,0.84
5348.00,0.84
5347.00,0.83
5346.00,0.83
5345.00,0.82
5344.00,0.82
5343.00,0.81
5342.00,0.80
5341.00,0.80
5340.00,0.79
5339.00,0.79
5338.00,0.78
5337.00,0.78
5336.00,0.77
5335.00,0.77
5334.00,0.76
5333.00,0.75
5332.00,0.75
5331.00,0.74
5330.00,0.74
5329.00,0.73
5328.00,0.72
5327.00,0.72
5326.00,0.71
5325.00,0.71
5324.00,0.70
5323.00,0.69
5322.00,0.69
5321.00,0.68
5320.00,0.67
5319.00,0.67
5318.00,0.66
5317.00,0.65
5316.00,0.65
5315.00,0.64
5314.00,0.63
5313.00,0.63
5312.00,0.62
5311.00,0.61
5310.00,0.61
5309.00,0.60
5308.00,0.59
5307.00,0.59
5306.00,0.58
5305.00,0.58
5304.00,0.57
5303.00,0.57
5302.00,0.56
5301.00,0.55
5300.00,0.55
5299.00,0.54
5298.00,0.54
5297.00,0.54
5296.00,0.53
5295.00,0.53
5294.00,0.52
5293.00,0.52
5292.00,0.51
5291.00,0.51
5290.00,0.51
5289.00,0.50
5288.00,0.50
5287.00,0.50
5286.00,0.49
5285.00,0.49
5284.00,0.49
5283.00,0.49
5282.00,0.48
5281.00,0.48
5280.00,0.48
5279.00,0.48
5278.00,0.48
5277.00,0.48
5276.00,0.47
5275.00,0.47
5274.00,0.47
5273.00,0.47
5272.00,0.47
5271.00,0.47
5270.00,0.47
5269.00,0.47
5268.00,0.46
5267.00,0.46
5266.00,0.46
5265.00,0.46
5264.00,0.46
5263.00,0.46
5262.00,0.46
5261.00,0.45
5260.00,0.45
5259.00,0.45
5258.00,0.45
5257.00,0.45
5256.00,0.45
5255.00,0.45
5254.00,0.45
5253.00,0.44
5252.00,0.44
5251.00,0.44
5250.00,0.44
5249.00,0.44
5248.00,0.44
5247.00,0.44
5246.00,0.44
5245.00,0.44
5244.00,0.44
5243.00,0.44
5242.00,0.44
5241.00,0.44
5240.00,0.44
5239.00,0.44
5238.00,0.44
5237.00,0.44
5236.00,0.44
5235.00,0.44
5234.00,0.44
5233.00,0.44
5232.00,0.44
5231.00,0.44
5230.00,0.44
5229.00,0.44
5228.00,0.44
5227.00,0.44
5226.00,0.44
5225.00,0.44
5224.00,0.43
5223.00,0.43
5222.00,0.43
5221.00,0.43
5220.00,0.43
5219.00,0.43
5218.00,0.43
5217.00,0.43
5216.00,0.43
5215.00,0.43
5214.00,0.43
5213.00,0.43
5212.00,0.43
5211.00,0.43
5210.00,0.43
5209.00,0.43
5208.00,0.43
5207.00,0.43
5206.00,0.43
5205.00,0.43
5204.00,0.43
5203.00,0.43
5202.00,0.43
5201.00,0.43
5200.00,0.43
5199.00,0.43
5198.00,0.43
5197.00,0.43
5196.00,0.43
5195.00,0.43
5194.00,0.43
5193.00,0.43
5192.00,0.43
5191.00,0.43
5190.00,0.43
5189.00,0.43
5188.00,0.43
5187.00,0.43
5186.00,0.43
5185.00,0.43
5184.00,0.43
5183.00,0.43
5182.00,0.43
5181.00,0.43
5180.00,0.43
5179.00,0.43
5178.00,0.43
5177.00,0.44
5176.00,0.44
5175.00,0.44
5174.00,0.44
5173.00,0.44
5172.00,0.44
5171.00,0.44
5170.00,0.44
5169.00,0.44
5168.00,0.44
5167.00,0.44
5166.00,0.44
5165.00,0.44
5164.00,0.44
5163.00,0.44
5162.00,0.44
5161.00,0.44
5160.00,0.44
5159.00,0.44
5158.00,0.44
5157.00,0.44
5156.00,0.44
5155.00,0.44
5154.00,0.44
5153.00,0.44
5152.00,0.44
5151.00,0.44
5150.00,0.44
5149.00,0.44
5148.00,0.44
5147.00,0.44
5146.00,0.44
5145.00,0.45
5144.00,0.45
5143.00,0.45
5142.00,0.45
5141.00,0.45
5140.00,0.45
5139.00,0.45
5138.00,0.45
5137.00,0.45
5136.00,0.45
5135.00,0.45
5134.00,0.45
5133.00,0.45
5132.00,0.45
5131.00,0.46
5130.00,0.46
5129.00,0.46
5128.00,0.46
5127.00,0.46
5126.00,0.46
5125.00,0.46
5124.00,0.46
5123.00,0.46
5122.00,0.46
5121.00,0.46
5120.00,0.46
5119.00,0.46
5118.00,0.46
5117.00,0.46
5116.00,0.46
5115.00,0.46
5114.00,0.46
5113.00,0.46
5112.00,0.46
5111.00,0.46
5110.00,0.46
5109.00,0.46
5108.00,0.46
5107.00,0.46
5106.00,0.46
5105.00,0.46
5104.00,0.46
5103.00,0.46
5102.00,0.46
5101.00,0.46
5100.00,0.47
5099.00,0.47
5098.00,0.47
5097.00,0.47
5096.00,0.47
5095.00,0.47
5094.00,0.47
5093.00,0.47
5092.00,0.47
5091.00,0.47
5090.00,0.47
5089.00,0.47
5088.00,0.47
5087.00,0.47
5086.00,0.47
5085.00,0.47
5084.00,0.48
5083.00,0.48
5082.00,0.48
5081.00,0.48
5080.00,0.48
5079.00,0.48
5078.00,0.48
5077.00,0.48
5076.00,0.48
5075.00,0.48
5074.00,0.48
5073.00,0.48
5072.00,0.48
5071.00,0.48
5070.00,0.49
5069.00,0.49
5068.00,0.49
5067.00,0.49
5066.00,0.49
5065.00,0.49
5064.00,0.49
5063.00,0.49
5062.00,0.49
5061.00,0.49
5060.00,0.49
5059.00,0.49
5058.00,0.49
5057.00,0.50
5056.00,0.50
5055.00,0.50
5054.00,0.50
5053.00,0.50
5052.00,0.50
5051.00,0.50
5050.00,0.50
5049.00,0.50
5048.00,0.50
5047.00,0.50
5046.00,0.50
5045.00,0.50
5044.00,0.50
5043.00,0.51
5042.00,0.51
5041.00,0.51
5040.00,0.51
5039.00,0.51
5038.00,0.51
5037.00,0.51
5036.00,0.51
5035.00,0.51
5034.00,0.51
5033.00,0.51
5032.00,0.52
5031.00,0.52
5030.00,0.52
5029.00,0.52
5028.00,0.52
5027.00,0.52
5026.00,0.52
5025.00,0.52
5024.00,0.52
5023.00,0.52
5022.00,0.53
5021.00,0.53
5020.00,0.53
5019.00,0.53
5018.00,0.53
5017.00,0.53
5016.00,0.53
5015.00,0.53
5014.00,0.53
5013.00,0.54
5012.00,0.54
5011.00,0.54
5010.00,0.54
5009.00,0.54
5008.00,0.54
5007.00,0.54
5006.00,0.54
5005.00,0.54
5004.00,0.55
5003.00,0.55
5002.00,0.55
5001.00,0.55
5000.00,0.55
4999.00,0.55
4998.00,0.55
4997.00,0.55
4996.00,0.55
4995.00,0.55
4994.00,0.55
4993.00,0.56
4992.00,0.56
4991.00,0.56
4990.00,0.56
4989.00,0.56
4988.00,0.56
4987.00,0.56
4986.00,0.56
4985.00,0.56
4984.00,0.57
4983.00,0.57
4982.00,0.57
4981.00,0.57
4980.00,0.57
4979.00,0.57
4978.00,0.57
4977.00,0.57
4976.00,0.57
4975.00,0.57
4974.00,0.57
4973.00,0.57
4972.00,0.57
4971.00,0.57
4970.00,0.58
4969.00,0.58
4968.00,0.58
4967.00,0.58
4966.00,0.58
4965.00,0.58
4964.00,0.58
4963.00,0.58
4962.00,0.58
4961.00,0.58
4960.00,0.58
4959.00,0.58
4958.00,0.58
4957.00,0.59
4956.00,0.59
4955.00,0.59
4954.00,0.59
4953.00,0.59
4952.00,0.59
4951.00,0.59
4950.00,0.59
4949.00,0.59
4948.00,0.59
4947.00,0.59
4946.00,0.59
4945.00,0.59
4944.00,0.59
4943.00,0.60
4942.00,0.60
4941.00,0.60
4940.00,0.60
4939.00,0.60
4938.00,0.60
4937.00,0.60
4936.00,0.60
4935.00,0.60
4934.00,0.60
4933.00,0.60
4932.00,0.60
4931.00,0.60
4930.00,0.60
4929.00,0.60
4928.00,0.61
4927.00,0.61
4926.00,0.61
4925.00,0.61
4924.00,0.61
4923.00,0.61
4922.00,0.61
4921.00,0.61
4920.00,0.61
4919.00,0.61
4918.00,0.61
4917.00,0.61
4916.00,0.61
4915.00,0.61
4914.00,0.61
4913.00,0.62
4912.00,0.62
4911.00,0.62
4910.00,0.62
4909.00,0.62
4908.00,0.62
4907.00,0.62
4906.00,0.62
4905.00,0.62
4904.00,0.62
4903.00,0.62
4902.00,0.62
4901.00,0.62
4900.00,0.63
4899.00,0.63
4898.00,0.63
4897.00,0.63
4896.00,0.63
4895.00,0.63
4894.00,0.63
4893.00,0.63
4892.00,0.63
4891.00,0.63
4890.00,0.63
4889.00,0.63
4888.00,0.63
4887.00,0.63
4886.00,0.63
4885.00,0.63
4884.00,0.63
4883.00,0.63
4882.00,0.63
4881.00,0.63
4880.00,0.63
4879.00,0.63
4878.00,0.63
4877.00,0.63
4876.00,0.63
4875.00,0.63
4874.00,0.63
4873.00,0.63
4872.00,0.63
4871.00,0.63
4870.00,0.63
4869.00,0.64
4868.00,0.64
4867.00,0.64
4866.00,0.64
4865.00,0.64
4864.00,0.64
4863.00,0.64
4862.00,0.64
4861.00,0.64
4860.00,0.64
4859.00,0.64
4858.00,0.64
4857.00,0.64
4856.00,0.64
4855.00,0.64
4854.00,0.64
4853.00,0.64
4852.00,0.64
4851.00,0.64
4850.00,0.64
4849.00,0.64
4848.00,0.64
4847.00,0.64
4846.00,0.65
4845.00,0.65
4844.00,0.65
4843.00,0.65
4842.00,0.65
4841.00,0.65
4840.00,0.65
4839.00,0.65
4838.00,0.65
4837.00,0.65
4836.00,0.65
4835.00,0.65
4834.00,0.65
4833.00,0.65
4832.00,0.65
4831.00,0.65
4830.00,0.65
4829.00,0.65
4828.00,0.65
4827.00,0.66
4826.00,0.66
4825.00,0.66
4824.00,0.66
4823.00,0.66
4822.00,0.66
4821.00,0.66
4820.00,0.66
4819.00,0.66
4818.00,0.66
4817.00,0.66
4816.00,0.66
4815.00,0.67
4814.00,0.67
4813.00,0.67
4812.00,0.67
4811.00,0.67
4810.00,0.67
4809.00,0.67
4808.00,0.67
4807.00,0.67
4806.00,0.67
4805.00,0.68
4804.00,0.68
4803.00,0.68
4802.00,0.68
4801.00,0.68
4800.00,0.68
4799.00,0.68
4798.00,0.68
4797.00,0.68
4796.00,0.68
4795.00,0.68
4794.00,0.68
4793.00,0.69
4792.00,0.69
4791.00,0.69
4790.00,0.69
4789.00,0.69
4788.00,0.69
4787.00,0.69
4786.00,0.69
4785.00,0.69
4784.00,0.69
4783.00,0.70
4782.00,0.70
4781.00,0.70
4780.00,0.70
4779.00,0.70
4778.00,0.70
4777.00,0.70
4776.00,0.70
4775.00,0.71
4774.00,0.71
4773.00,0.71
4772.00,0.71
4771.00,0.71
4770.00,0.71
4769.00,0.72
4768.00,0.72
4767.00,0.72
4766.00,0.72
4765.00,0.72
4764.00,0.72
4763.00,0.72
4762.00,0.73
4761.00,0.73
4760.00,0.73
4759.00,0.73
4758.00,0.73
4757.00,0.73
4756.00,0.73
4755.00,0.73
4754.00,0.74
4753.00,0.74
4752.00,0.74
4751.00,0.74
4750.00,0.74
4749.00,0.74
4748.00,0.74
4747.00,0.74
4746.00,0.74
4745.00,0.75
4744.00,0.75
4743.00,0.75
4742.00,0.75
4741.00,0.75
4740.00,0.75
4739.00,0.75
4738.00,0.75
4737.00,0.75
4736.00,0.76
4735.00,0.76
4734.00,0.76
4733.00,0.76
4732.00,0.76
4731.00,0.76
4730.00,0.76
4729.00,0.76
4728.00,0.76
4727.00,0.77
4726.00,0.77
4725.00,0.77
4724.00,0.77
4723.00,0.77
4722.00,0.77
4721.00,0.77
4720.00,0.77
4719.00,0.77
4718.00,0.78
4717.00,0.78
4716.00,0.78
4715.00,0.78
4714.00,0.78
4713.00,0.78
4712.00,0.78
4711.00,0.78
4710.00,0.79
4709.00,0.79
4708.00,0.79
4707.00,0.79
4706.00,0.79
4705.00,0.79
4704.00,0.79
4703.00,0.79
4702.00,0.79
4701.00,0.79
4700.00,0.80
4699.00,0.80
4698.00,0.80
4697.00,0.80
4696.00,0.80
4695.00,0.80
4694.00,0.80
4693.00,0.80
4692.00,0.81
4691.00,0.81
4690.00,0.81
4689.00,0.81
4688.00,0.81
4687.00,0.81
4686.00,0.81
4685.00,0.82
4684.00,0.82
4683.00,0.82
4682.00,0.82
4681.00,0.82
4680.00,0.82
4679.00,0.82
4678.00,0.83
4677.00,0.83
4676.00,0.83
4675.00,0.83
4674.00,0.83
4673.00,0.83
4672.00,0.83
4671.00,0.83
4670.00,0.83
4669.00,0.83
4668.00,0.84
4667.00,0.84
4666.00,0.84
4665.00,0.84
4664.00,0.84
4663.00,0.84
4662.00,0.84
4661.00,0.84
4660.00,0.84
4659.00,0.84
4658.00,0.84
4657.00,0.84
4656.00,0.85
4655.00,0.85
4654.00,0.85
4653.00,0.85
4652.00,0.85
4651.00,0.85
4650.00,0.85
4649.00,0.85
4648.00,0.85
4647.00,0.86
4646.00,0.86
4645.00,0.86
4644.00,0.86
4643.00,0.86
4642.00,0.86
4641.00,0.86
4640.00,0.86
4639.00,0.86
4638.00,0.87
4637.00,0.87
4636.00,0.87
4635.00,0.87
4634.00,0.87
4633.00,0.87
4632.00,0.87
4631.00,0.87
4630.00,0.87
4629.00,0.87
4628.00,0.87
4627.00,0.87
4626.00,0.87
4625.00,0.87
4624.00,0.87
4623.00,0.88
4622.00,0.88
4621.00,0.88
4620.00,0.88
4619.00,0.88
4618.00,0.88
4617.00,0.88
4616.00,0.88
4615.00,0.88
4614.00,0.88
4613.00,0.88
4612.00,0.88
4611.00,0.88
4610.00,0.89
4609.00,0.89
4608.00,0.89
4607.00,0.89
4606.00,0.89
4605.00,0.89
4604.00,0.89
4603.00,0.89
4602.00,0.89
4601.00,0.89
4600.00,0.89
4599.00,0.89
4598.00,0.89
4597.00,0.89
4596.00,0.89
4595.00,0.89
4594.00,0.89
4593.00,0.89
4592.00,0.89
4591.00,0.89
4590.00,0.89
4589.00,0.89
4588.00,0.90
4587.00,0.90
4586.00,0.90
4585.00,0.90
4584.00,0.90
4583.00,0.90
4582.00,0.90
4581.00,0.90
4580.00,0.90
4579.00,0.90
4578.00,0.90
4577.00,0.90
4576.00,0.90
4575.00,0.90
4574.00,0.91
4573.00,0.91
4572.00,0.91
4571.00,0.91
4570.00,0.91
4569.00,0.91
4568.00,0.91
4567.00,0.91
4566.00,0.91
4565.00,0.91
4564.00,0.92
4563.00,0.92
4562.00,0.92
4561.00,0.92
4560.00,0.92
4559.00,0.92
4558.00,0.92
4557.00,0.92
4556.00,0.92
4555.00,0.92
4554.00,0.92
4553.00,0.92
4552.00,0.92
4551.00,0.92
4550.00,0.92
4549.00,0.92
4548.00,0.92
4547.00,0.92
4546.00,0.92
4545.00,0.92
4544.00,0.93
4543.00,0.93
4542.00,0.93
4541.00,0.93
4540.00,0.93
4539.00,0.93
4538.00,0.93
4537.00,0.93
4536.00,0.93
4535.00,0.93
4534.00,0.93
4533.00,0.93
4532.00,0.93
4531.00,0.93
4530.00,0.93
4529.00,0.93
4528.00,0.93
4527.00,0.93
4526.00,0.94
4525.00,0.94
4524.00,0.94
4523.00,0.94
4522.00,0.94
4521.00,0.94
4520.00,0.94
4519.00,0.94
4518.00,0.94
4517.00,0.94
4516.00,0.94
4515.00,0.94
4514.00,0.94
4513.00,0.94
4512.00,0.94
4511.00,0.94
4510.00,0.94
4509.00,0.94
4508.00,0.94
4507.00,0.94
4506.00,0.94
4505.00,0.94
4504.00,0.94
4503.00,0.94
4502.00,0.94
4501.00,0.94
4500.00,0.94
4499.00,0.94
4498.00,0.94
4497.00,0.94
4496.00,0.94
4495.00,0.94
4494.00,0.94
4493.00,0.94
4492.00,0.94
4491.00,0.94
4490.00,0.93
4489.00,0.93
4488.00,0.93
4487.00,0.93
4486.00,0.93
4485.00,0.93
4484.00,0.93
4483.00,0.93
4482.00,0.93
4481.00,0.93
4480.00,0.93
4479.00,0.92
4478.00,0.92
4477.00,0.92
4476.00,0.92
4475.00,0.92
4474.00,0.92
4473.00,0.92
4472.00,0.92
4471.00,0.92
4470.00,0.91
4469.00,0.91
4468.00,0.91
4467.00,0.91
4466.00,0.91
4465.00,0.90
4464.00,0.90
4463.00,0.90
4462.00,0.90
4461.00,0.89
4460.00,0.89
4459.00,0.89
4458.00,0.89
4457.00,0.88
4456.00,0.88
4455.00,0.88
4454.00,0.87
4453.00,0.87
4452.00,0.87
4451.00,0.86
4450.00,0.86
4449.00,0.85
4448.00,0.85
4447.00,0.84
4446.00,0.84
4445.00,0.83
4444.00,0.83
4443.00,0.82
4442.00,0.82
4441.00,0.81
4440.00,0.81
4439.00,0.80
4438.00,0.80
4437.00,0.79
4436.00,0.79
4435.00,0.78
4434.00,0.78
4433.00,0.77
4432.00,0.77
4431.00,0.77
4430.00,0.76
4429.00,0.76
4428.00,0.75
4427.00,0.75
4426.00,0.75
4425.00,0.74
4424.00,0.74
4423.00,0.74
4422.00,0.74
4421.00,0.73
4420.00,0.73
4419.00,0.73
4418.00,0.73
4417.00,0.73
4416.00,0.73
4415.00,0.72
4414.00,0.72
4413.00,0.72
4412.00,0.72
4411.00,0.72
4410.00,0.72
4409.00,0.72
4408.00,0.72
4407.00,0.72
4406.00,0.72
4405.00,0.72
4404.00,0.73
4403.00,0.73
4402.00,0.73
4401.00,0.73
4400.00,0.73
4399.00,0.73
4398.00,0.73
4397.00,0.73
4396.00,0.73
4395.00,0.74
4394.00,0.74
4393.00,0.74
4392.00,0.74
4391.00,0.74
4390.00,0.74
4389.00,0.75
4388.00,0.75
4387.00,0.75
4386.00,0.75
4385.00,0.76
4384.00,0.76
4383.00,0.76
4382.00,0.76
4381.00,0.76
4380.00,0.76
4379.00,0.77
4378.00,0.77
4377.00,0.77
4376.00,0.77
4375.00,0.77
4374.00,0.77
4373.00,0.77
4372.00,0.77
4371.00,0.77
4370.00,0.77
4369.00,0.77
4368.00,0.77
4367.00,0.77
4366.00,0.77
4365.00,0.77
4364.00,0.77
4363.00,0.77
4362.00,0.77
4361.00,0.77
4360.00,0.77
4359.00,0.77
4358.00,0.77
4357.00,0.76
4356.00,0.76
4355.00,0.76
4354.00,0.76
4353.00,0.76
4352.00,0.76
4351.00,0.76
4350.00,0.76
4349.00,0.75
4348.00,0.75
4347.00,0.75
4346.00,0.75
4345.00,0.75
4344.00,0.75
4343.00,0.75
4342.00,0.75
4341.00,0.75
4340.00,0.75
4339.00,0.75
4338.00,0.75
4337.00,0.75
4336.00,0.75
4335.00,0.75
4334.00,0.75
4333.00,0.75
4332.00,0.76
4331.00,0.76
4330.00,0.76
4329.00,0.76
4328.00,0.77
4327.00,0.77
4326.00,0.77
4325.00,0.78
4324.00,0.78
4323.00,0.78
4322.00,0.79
4321.00,0.79
4320.00,0.79
4319.00,0.79
4318.00,0.80
4317.00,0.80
4316.00,0.80
4315.00,0.81
4314.00,0.81
4313.00,0.81
4312.00,0.81
4311.00,0.82
4310.00,0.82
4309.00,0.82
4308.00,0.82
4307.00,0.83
4306.00,0.83
4305.00,0.83
4304.00,0.83
4303.00,0.84
4302.00,0.84
4301.00,0.84
4300.00,0.84
4299.00,0.85
4298.00,0.85
4297.00,0.85
4296.00,0.85
4295.00,0.85
4294.00,0.86
4293.00,0.86
4292.00,0.86
4291.00,0.86
4290.00,0.86
4289.00,0.86
4288.00,0.87
4287.00,0.87
4286.00,0.87
4285.00,0.87
4284.00,0.87
4283.00,0.87
4282.00,0.87
4281.00,0.87
4280.00,0.87
4279.00,0.87
4278.00,0.87
4277.00,0.87
4276.00,0.87
4275.00,0.87
4274.00,0.87
4273.00,0.87
4272.00,0.86
4271.00,0.86
4270.00,0.86
4269.00,0.86
4268.00,0.86
4267.00,0.86
4266.00,0.85
4265.00,0.85
4264.00,0.85
4263.00,0.85
4262.00,0.85
4261.00,0.85
4260.00,0.84
4259.00,0.84
4258.00,0.84
4257.00,0.84
4256.00,0.84
4255.00,0.84
4254.00,0.84
4253.00,0.84
4252.00,0.84
4251.00,0.84
4250.00,0.84
4249.00,0.85
4248.00,0.85
4247.00,0.85
4246.00,0.85
4245.00,0.85
4244.00,0.85
4243.00,0.86
4242.00,0.86
4241.00,0.86
4240.00,0.86
4239.00,0.86
4238.00,0.87
4237.00,0.87
4236.00,0.87
4235.00,0.87
4234.00,0.88
4233.00,0.88
4232.00,0.88
4231.00,0.88
4230.00,0.88
4229.00,0.88
4228.00,0.89
4227.00,0.89
4226.00,0.89
4225.00,0.89
4224.00,0.89
4223.00,0.89
4222.00,0.90
4221.00,0.90
4220.00,0.90
4219.00,0.90
4218.00,0.90
4217.00,0.90
4216.00,0.90
4215.00,0.90
4214.00,0.90
4213.00,0.90
4212.00,0.91
4211.00,0.91
4210.00,0.91
4209.00,0.91
4208.00,0.91
4207.00,0.91
4206.00,0.91
4205.00,0.91
4204.00,0.91
4203.00,0.91
4202.00,0.91
4201.00,0.91
4200.00,0.91
4199.00,0.91
4198.00,0.91
4197.00,0.91
4196.00,0.91
4195.00,0.91
4194.00,0.91
4193.00,0.90
4192.00,0.90
4191.00,0.90
4190.00,0.90
4189.00,0.90
4188.00,0.90
4187.00,0.90
4186.00,0.90
4185.00,0.90
4184.00,0.90
4183.00,0.90
4182.00,0.90
4181.00,0.90
4180.00,0.90
4179.00,0.90
4178.00,0.90
4177.00,0.90
4176.00,0.90
4175.00,0.90
4174.00,0.90
4173.00,0.90
4172.00,0.90
4171.00,0.90
4170.00,0.90
4169.00,0.90
4168.00,0.90
4167.00,0.90
4166.00,0.90
4165.00,0.90
4164.00,0.90
4163.00,0.90
4162.00,0.90
4161.00,0.90
4160.00,0.90
4159.00,0.90
4158.00,0.90
4157.00,0.90
4156.00,0.90
4155.00,0.90
4154.00,0.90
4153.00,0.90
4152.00,0.90
4151.00,0.90
4150.00,0.90
4149.00,0.90
4148.00,0.90
4147.00,0.90
4146.00,0.90
4145.00,0.90
4144.00,0.90
4143.00,0.90
4142.00,0.90
4141.00,0.90
4140.00,0.90
4139.00,0.91
4138.00,0.91
4137.00,0.91
4136.00,0.91
4135.00,0.91
4134.00,0.91
4133.00,0.91
4132.00,0.91
4131.00,0.91
4130.00,0.91
4129.00,0.91
4128.00,0.91
4127.00,0.91
4126.00,0.91
4125.00,0.91
4124.00,0.91
4123.00,0.91
4122.00,0.91
4121.00,0.91
4120.00,0.91
4119.00,0.91
4118.00,0.91
4117.00,0.91
4116.00,0.91
4115.00,0.91
4114.00,0.91
4113.00,0.91
4112.00,0.91
4111.00,0.91
4110.00,0.91
4109.00,0.91
4108.00,0.91
4107.00,0.91
4106.00,0.91
4105.00,0.90
4104.00,0.90
4103.00,0.90
4102.00,0.90
4101.00,0.90
4100.00,0.90
4099.00,0.90
4098.00,0.90
4097.00,0.90
4096.00,0.90
4095.00,0.90
4094.00,0.90
4093.00,0.91
4092.00,0.91
4091.00,0.91
4090.00,0.91
4089.00,0.91
4088.00,0.91
4087.00,0.91
4086.00,0.91
4085.00,0.91
4084.00,0.91
4083.00,0.91
4082.00,0.91
4081.00,0.91
4080.00,0.91
4079.00,0.91
4078.00,0.91
4077.00,0.91
4076.00,0.91
4075.00,0.91
4074.00,0.91
4073.00,0.91
4072.00,0.91
4071.00,0.91
4070.00,0.91
4069.00,0.91
4068.00,0.91
4067.00,0.91
4066.00,0.91
4065.00,0.91
4064.00,0.91
4063.00,0.91
4062.00,0.91
4061.00,0.91
4060.00,0.91
4059.00,0.91
4058.00,0.91
4057.00,0.91
4056.00,0.92
4055.00,0.92
4054.00,0.92
4053.00,0.92
4052.00,0.92
4051.00,0.92
4050.00,0.92
4049.00,0.92
4048.00,0.92
4047.00,0.92
4046.00,0.92
4045.00,0.92
4044.00,0.92
4043.00,0.92
4042.00,0.92
4041.00,0.92
4040.00,0.92
4039.00,0.92
4038.00,0.92
4037.00,0.92
4036.00,0.92
4035.00,0.92
4034.00,0.92
4033.00,0.92
4032.00,0.92
4031.00,0.92
4030.00,0.92
4029.00,0.92
4028.00,0.92
4027.00,0.92
4026.00,0.92
4025.00,0.92
4024.00,0.93
4023.00,0.93
4022.00,0.93
4021.00,0.93
4020.00,0.93
4019.00,0.93
4018.00,0.93
4017.00,0.93
4016.00,0.93
4015.00,0.93
4014.00,0.93
4013.00,0.93
4012.00,0.93
4011.00,0.94
4010.00,0.94
4009.00,0.94
4008.00,0.94
4007.00,0.94
4006.00,0.94
4005.00,0.94
4004.00,0.94
4003.00,0.94
4002.00,0.94
4001.00,0.94
4000.00,0.94
