创建为新数据集,样品 229 用户 Administrator 日期 星期六, 七月 21 2018
cm-1,%T
10000.00,0.98
9999.00,0.98
9998.00,0.98
9997.00,0.98
9996.00,0.97
9995.00,0.97
9994.00,0.97
9993.00,0.97
9992.00,0.97
9991.00,0.97
9990.00,0.97
9989.00,0.97
9988.00,0.97
9987.00,0.97
9986.00,0.97
9985.00,0.97
9984.00,0.97
9983.00,0.97
9982.00,0.97
9981.00,0.98
9980.00,0.98
9979.00,0.98
9978.00,0.98
9977.00,0.98
9976.00,0.98
9975.00,0.98
9974.00,0.98
9973.00,0.98
9972.00,0.98
9971.00,0.98
9970.00,0.98
9969.00,0.98
9968.00,0.98
9967.00,0.98
9966.00,0.98
9965.00,0.98
9964.00,0.98
9963.00,0.98
9962.00,0.98
9961.00,0.98
9960.00,0.97
9959.00,0.97
9958.00,0.97
9957.00,0.97
9956.00,0.97
9955.00,0.97
9954.00,0.97
9953.00,0.97
9952.00,0.97
9951.00,0.97
9950.00,0.97
9949.00,0.97
9948.00,0.97
9947.00,0.97
9946.00,0.97
9945.00,0.97
9944.00,0.97
9943.00,0.97
9942.00,0.97
9941.00,0.97
9940.00,0.97
9939.00,0.97
9938.00,0.97
9937.00,0.97
9936.00,0.97
9935.00,0.97
9934.00,0.97
9933.00,0.97
9932.00,0.97
9931.00,0.96
9930.00,0.96
9929.00,0.96
9928.00,0.96
9927.00,0.96
9926.00,0.96
9925.00,0.96
9924.00,0.96
9923.00,0.96
9922.00,0.96
9921.00,0.96
9920.00,0.96
9919.00,0.96
9918.00,0.96
9917.00,0.96
9916.00,0.96
9915.00,0.96
9914.00,0.96
9913.00,0.96
9912.00,0.96
9911.00,0.96
9910.00,0.96
9909.00,0.96
9908.00,0.96
9907.00,0.95
9906.00,0.95
9905.00,0.95
9904.00,0.95
9903.00,0.95
9902.00,0.94
9901.00,0.94
9900.00,0.94
9899.00,0.94
9898.00,0.94
9897.00,0.94
9896.00,0.94
9895.00,0.94
9894.00,0.94
9893.00,0.94
9892.00,0.94
9891.00,0.95
9890.00,0.95
9889.00,0.95
9888.00,0.95
9887.00,0.95
9886.00,0.95
9885.00,0.95
9884.00,0.95
9883.00,0.95
9882.00,0.95
9881.00,0.95
9880.00,0.95
9879.00,0.95
9878.00,0.95
9877.00,0.95
9876.00,0.95
9875.00,0.95
9874.00,0.95
9873.00,0.95
9872.00,0.95
9871.00,0.95
9870.00,0.95
9869.00,0.96
9868.00,0.96
9867.00,0.96
9866.00,0.96
9865.00,0.96
9864.00,0.96
9863.00,0.96
9862.00,0.96
9861.00,0.96
9860.00,0.96
9859.00,0.96
9858.00,0.96
9857.00,0.96
9856.00,0.96
9855.00,0.96
9854.00,0.96
9853.00,0.96
9852.00,0.96
9851.00,0.96
9850.00,0.96
9849.00,0.96
9848.00,0.96
9847.00,0.96
9846.00,0.96
9845.00,0.96
9844.00,0.97
9843.00,0.97
9842.00,0.97
9841.00,0.97
9840.00,0.97
9839.00,0.97
9838.00,0.97
9837.00,0.97
9836.00,0.97
9835.00,0.97
9834.00,0.97
9833.00,0.97
9832.00,0.97
9831.00,0.97
9830.00,0.97
9829.00,0.97
9828.00,0.97
9827.00,0.97
9826.00,0.97
9825.00,0.96
9824.00,0.96
9823.00,0.96
9822.00,0.96
9821.00,0.96
9820.00,0.95
9819.00,0.95
9818.00,0.95
9817.00,0.95
9816.00,0.95
9815.00,0.95
9814.00,0.94
9813.00,0.94
9812.00,0.94
9811.00,0.94
9810.00,0.94
9809.00,0.94
9808.00,0.94
9807.00,0.94
9806.00,0.93
9805.00,0.93
9804.00,0.93
9803.00,0.93
9802.00,0.94
9801.00,0.94
9800.00,0.94
9799.00,0.94
9798.00,0.94
9797.00,0.94
9796.00,0.94
9795.00,0.94
9794.00,0.94
9793.00,0.94
9792.00,0.94
9791.00,0.95
9790.00,0.95
9789.00,0.95
9788.00,0.94
9787.00,0.94
9786.00,0.94
9785.00,0.94
9784.00,0.94
9783.00,0.94
9782.00,0.94
9781.00,0.94
9780.00,0.95
9779.00,0.95
9778.00,0.95
9777.00,0.95
9776.00,0.95
9775.00,0.96
9774.00,0.96
9773.00,0.96
9772.00,0.96
9771.00,0.97
9770.00,0.97
9769.00,0.97
9768.00,0.97
9767.00,0.98
9766.00,0.98
9765.00,0.98
9764.00,0.98
9763.00,0.98
9762.00,0.98
9761.00,0.98
9760.00,0.98
9759.00,0.98
9758.00,0.98
9757.00,0.98
9756.00,0.98
9755.00,0.98
9754.00,0.98
9753.00,0.98
9752.00,0.98
9751.00,0.98
9750.00,0.98
9749.00,0.98
9748.00,0.98
9747.00,0.98
9746.00,0.98
9745.00,0.97
9744.00,0.97
9743.00,0.97
9742.00,0.97
9741.00,0.97
9740.00,0.96
9739.00,0.96
9738.00,0.96
9737.00,0.96
9736.00,0.96
9735.00,0.96
9734.00,0.95
9733.00,0.95
9732.00,0.95
9731.00,0.95
9730.00,0.95
9729.00,0.96
9728.00,0.96
9727.00,0.96
9726.00,0.96
9725.00,0.96
9724.00,0.96
9723.00,0.96
9722.00,0.97
9721.00,0.97
9720.00,0.97
9719.00,0.97
9718.00,0.97
9717.00,0.97
9716.00,0.97
9715.00,0.97
9714.00,0.98
9713.00,0.98
9712.00,0.98
9711.00,0.98
9710.00,0.98
9709.00,0.98
9708.00,0.98
9707.00,0.98
9706.00,0.98
9705.00,0.98
9704.00,0.98
9703.00,0.98
9702.00,0.97
9701.00,0.97
9700.00,0.97
9699.00,0.97
9698.00,0.97
9697.00,0.96
9696.00,0.96
9695.00,0.96
9694.00,0.96
9693.00,0.96
9692.00,0.96
9691.00,0.95
9690.00,0.95
9689.00,0.95
9688.00,0.95
9687.00,0.95
9686.00,0.95
9685.00,0.95
9684.00,0.95
9683.00,0.95
9682.00,0.95
9681.00,0.95
9680.00,0.96
9679.00,0.96
9678.00,0.96
9677.00,0.96
9676.00,0.96
9675.00,0.96
9674.00,0.96
9673.00,0.96
9672.00,0.96
9671.00,0.96
9670.00,0.96
9669.00,0.96
9668.00,0.96
9667.00,0.96
9666.00,0.96
9665.00,0.96
9664.00,0.96
9663.00,0.96
9662.00,0.96
9661.00,0.96
9660.00,0.96
9659.00,0.96
9658.00,0.96
9657.00,0.96
9656.00,0.96
9655.00,0.96
9654.00,0.96
9653.00,0.96
9652.00,0.96
9651.00,0.96
9650.00,0.96
9649.00,0.96
9648.00,0.96
9647.00,0.96
9646.00,0.96
9645.00,0.96
9644.00,0.96
9643.00,0.96
9642.00,0.96
9641.00,0.96
9640.00,0.96
9639.00,0.96
9638.00,0.96
9637.00,0.96
9636.00,0.96
9635.00,0.96
9634.00,0.96
9633.00,0.96
9632.00,0.96
9631.00,0.96
9630.00,0.96
9629.00,0.96
9628.00,0.96
9627.00,0.96
9626.00,0.96
9625.00,0.96
9624.00,0.95
9623.00,0.95
9622.00,0.95
9621.00,0.95
9620.00,0.95
9619.00,0.95
9618.00,0.94
9617.00,0.94
9616.00,0.94
9615.00,0.94
9614.00,0.94
9613.00,0.94
9612.00,0.94
9611.00,0.94
9610.00,0.94
9609.00,0.94
9608.00,0.94
9607.00,0.94
9606.00,0.94
9605.00,0.94
9604.00,0.94
9603.00,0.94
9602.00,0.94
9601.00,0.94
9600.00,0.95
9599.00,0.95
9598.00,0.95
9597.00,0.95
9596.00,0.95
9595.00,0.95
9594.00,0.96
9593.00,0.96
9592.00,0.96
9591.00,0.96
9590.00,0.97
9589.00,0.97
9588.00,0.97
9587.00,0.97
9586.00,0.98
9585.00,0.98
9584.00,0.98
9583.00,0.98
9582.00,0.98
9581.00,0.98
9580.00,0.98
9579.00,0.98
9578.00,0.98
9577.00,0.98
9576.00,0.97
9575.00,0.97
9574.00,0.97
9573.00,0.97
9572.00,0.97
9571.00,0.96
9570.00,0.96
9569.00,0.96
9568.00,0.96
9567.00,0.96
9566.00,0.96
9565.00,0.95
9564.00,0.95
9563.00,0.95
9562.00,0.95
9561.00,0.95
9560.00,0.96
9559.00,0.96
9558.00,0.96
9557.00,0.96
9556.00,0.96
9555.00,0.96
9554.00,0.96
9553.00,0.96
9552.00,0.96
9551.00,0.96
9550.00,0.96
9549.00,0.96
9548.00,0.96
9547.00,0.96
9546.00,0.96
9545.00,0.95
9544.00,0.95
9543.00,0.95
9542.00,0.95
9541.00,0.95
9540.00,0.95
9539.00,0.95
9538.00,0.95
9537.00,0.95
9536.00,0.94
9535.00,0.94
9534.00,0.94
9533.00,0.94
9532.00,0.94
9531.00,0.94
9530.00,0.94
9529.00,0.94
9528.00,0.94
9527.00,0.94
9526.00,0.94
9525.00,0.94
9524.00,0.94
9523.00,0.94
9522.00,0.94
9521.00,0.94
9520.00,0.93
9519.00,0.93
9518.00,0.93
9517.00,0.93
9516.00,0.93
9515.00,0.93
9514.00,0.93
9513.00,0.93
9512.00,0.94
9511.00,0.94
9510.00,0.94
9509.00,0.94
9508.00,0.94
9507.00,0.94
9506.00,0.94
9505.00,0.94
9504.00,0.95
9503.00,0.95
9502.00,0.95
9501.00,0.95
9500.00,0.95
9499.00,0.95
9498.00,0.96
9497.00,0.96
9496.00,0.96
9495.00,0.96
9494.00,0.96
9493.00,0.96
9492.00,0.96
9491.00,0.96
9490.00,0.96
9489.00,0.96
9488.00,0.96
9487.00,0.96
9486.00,0.96
9485.00,0.95
9484.00,0.95
9483.00,0.95
9482.00,0.95
9481.00,0.94
9480.00,0.94
9479.00,0.93
9478.00,0.93
9477.00,0.93
9476.00,0.93
9475.00,0.92
9474.00,0.92
9473.00,0.92
9472.00,0.92
9471.00,0.92
9470.00,0.92
9469.00,0.92
9468.00,0.92
9467.00,0.92
9466.00,0.92
9465.00,0.92
9464.00,0.92
9463.00,0.92
9462.00,0.93
9461.00,0.93
9460.00,0.93
9459.00,0.93
9458.00,0.94
9457.00,0.94
9456.00,0.94
9455.00,0.94
9454.00,0.95
9453.00,0.95
9452.00,0.95
9451.00,0.96
9450.00,0.96
9449.00,0.96
9448.00,0.96
9447.00,0.96
9446.00,0.97
9445.00,0.97
9444.00,0.97
9443.00,0.97
9442.00,0.97
9441.00,0.97
9440.00,0.97
9439.00,0.97
9438.00,0.97
9437.00,0.97
9436.00,0.97
9435.00,0.97
9434.00,0.97
9433.00,0.97
9432.00,0.97
9431.00,0.97
9430.00,0.97
9429.00,0.97
9428.00,0.97
9427.00,0.97
9426.00,0.98
9425.00,0.98
9424.00,0.98
9423.00,0.98
9422.00,0.98
9421.00,0.98
9420.00,0.98
9419.00,0.98
9418.00,0.98
9417.00,0.98
9416.00,0.97
9415.00,0.97
9414.00,0.97
9413.00,0.97
9412.00,0.97
9411.00,0.96
9410.00,0.96
9409.00,0.96
9408.00,0.96
9407.00,0.95
9406.00,0.95
9405.00,0.95
9404.00,0.95
9403.00,0.94
9402.00,0.94
9401.00,0.94
9400.00,0.94
9399.00,0.94
9398.00,0.94
9397.00,0.94
9396.00,0.94
9395.00,0.94
9394.00,0.94
9393.00,0.94
9392.00,0.94
9391.00,0.95
9390.00,0.95
9389.00,0.95
9388.00,0.95
9387.00,0.95
9386.00,0.94
9385.00,0.94
9384.00,0.94
9383.00,0.94
9382.00,0.94
9381.00,0.94
9380.00,0.94
9379.00,0.94
9378.00,0.93
9377.00,0.93
9376.00,0.93
9375.00,0.93
9374.00,0.93
9373.00,0.93
9372.00,0.93
9371.00,0.93
9370.00,0.93
9369.00,0.93
9368.00,0.93
9367.00,0.93
9366.00,0.94
9365.00,0.94
9364.00,0.94
9363.00,0.94
9362.00,0.94
9361.00,0.94
9360.00,0.95
9359.00,0.95
9358.00,0.95
9357.00,0.95
9356.00,0.96
9355.00,0.96
9354.00,0.96
9353.00,0.96
9352.00,0.96
9351.00,0.96
9350.00,0.96
9349.00,0.97
9348.00,0.97
9347.00,0.97
9346.00,0.97
9345.00,0.96
9344.00,0.96
9343.00,0.96
9342.00,0.96
9341.00,0.96
9340.00,0.96
9339.00,0.96
9338.00,0.96
9337.00,0.96
9336.00,0.96
9335.00,0.96
9334.00,0.96
9333.00,0.96
9332.00,0.96
9331.00,0.96
9330.00,0.96
9329.00,0.96
9328.00,0.96
9327.00,0.96
9326.00,0.97
9325.00,0.97
9324.00,0.97
9323.00,0.97
9322.00,0.97
9321.00,0.97
9320.00,0.97
9319.00,0.97
9318.00,0.97
9317.00,0.97
9316.00,0.96
9315.00,0.96
9314.00,0.96
9313.00,0.96
9312.00,0.96
9311.00,0.95
9310.00,0.95
9309.00,0.95
9308.00,0.95
9307.00,0.95
9306.00,0.94
9305.00,0.94
9304.00,0.94
9303.00,0.94
9302.00,0.94
9301.00,0.95
9300.00,0.95
9299.00,0.95
9298.00,0.95
9297.00,0.95
9296.00,0.95
9295.00,0.96
9294.00,0.96
9293.00,0.96
9292.00,0.96
9291.00,0.96
9290.00,0.96
9289.00,0.96
9288.00,0.96
9287.00,0.96
9286.00,0.96
9285.00,0.96
9284.00,0.96
9283.00,0.96
9282.00,0.96
9281.00,0.96
9280.00,0.96
9279.00,0.95
9278.00,0.95
9277.00,0.95
9276.00,0.95
9275.00,0.95
9274.00,0.95
9273.00,0.95
9272.00,0.95
9271.00,0.95
9270.00,0.95
9269.00,0.95
9268.00,0.95
9267.00,0.95
9266.00,0.95
9265.00,0.95
9264.00,0.95
9263.00,0.95
9262.00,0.95
9261.00,0.95
9260.00,0.95
9259.00,0.95
9258.00,0.95
9257.00,0.95
9256.00,0.94
9255.00,0.94
9254.00,0.94
9253.00,0.94
9252.00,0.94
9251.00,0.95
9250.00,0.95
9249.00,0.95
9248.00,0.95
9247.00,0.95
9246.00,0.95
9245.00,0.95
9244.00,0.95
9243.00,0.95
9242.00,0.95
9241.00,0.95
9240.00,0.96
9239.00,0.96
9238.00,0.96
9237.00,0.96
9236.00,0.96
9235.00,0.96
9234.00,0.97
9233.00,0.97
9232.00,0.97
9231.00,0.97
9230.00,0.97
9229.00,0.97
9228.00,0.97
9227.00,0.97
9226.00,0.97
9225.00,0.97
9224.00,0.97
9223.00,0.97
9222.00,0.98
9221.00,0.98
9220.00,0.98
9219.00,0.98
9218.00,0.98
9217.00,0.98
9216.00,0.98
9215.00,0.98
9214.00,0.98
9213.00,0.98
9212.00,0.98
9211.00,0.98
9210.00,0.98
9209.00,0.98
9208.00,0.98
9207.00,0.98
9206.00,0.98
9205.00,0.98
9204.00,0.97
9203.00,0.97
9202.00,0.97
9201.00,0.97
9200.00,0.96
9199.00,0.96
9198.00,0.96
9197.00,0.95
9196.00,0.95
9195.00,0.95
9194.00,0.94
9193.00,0.94
9192.00,0.94
9191.00,0.94
9190.00,0.93
9189.00,0.93
9188.00,0.93
9187.00,0.93
9186.00,0.93
9185.00,0.94
9184.00,0.94
9183.00,0.94
9182.00,0.94
9181.00,0.94
9180.00,0.95
9179.00,0.95
9178.00,0.95
9177.00,0.95
9176.00,0.95
9175.00,0.95
9174.00,0.96
9173.00,0.96
9172.00,0.96
9171.00,0.96
9170.00,0.96
9169.00,0.96
9168.00,0.96
9167.00,0.96
9166.00,0.96
9165.00,0.96
9164.00,0.96
9163.00,0.96
9162.00,0.96
9161.00,0.96
9160.00,0.96
9159.00,0.96
9158.00,0.96
9157.00,0.96
9156.00,0.96
9155.00,0.96
9154.00,0.96
9153.00,0.96
9152.00,0.96
9151.00,0.97
9150.00,0.97
9149.00,0.97
9148.00,0.97
9147.00,0.97
9146.00,0.97
9145.00,0.97
9144.00,0.96
9143.00,0.96
9142.00,0.96
9141.00,0.96
9140.00,0.96
9139.00,0.96
9138.00,0.96
9137.00,0.96
9136.00,0.96
9135.00,0.96
9134.00,0.96
9133.00,0.96
9132.00,0.96
9131.00,0.96
9130.00,0.96
9129.00,0.96
9128.00,0.96
9127.00,0.96
9126.00,0.97
9125.00,0.97
9124.00,0.97
9123.00,0.97
9122.00,0.97
9121.00,0.97
9120.00,0.97
9119.00,0.97
9118.00,0.97
9117.00,0.97
9116.00,0.96
9115.00,0.96
9114.00,0.96
9113.00,0.96
9112.00,0.96
9111.00,0.96
9110.00,0.96
9109.00,0.95
9108.00,0.95
9107.00,0.95
9106.00,0.95
9105.00,0.95
9104.00,0.95
9103.00,0.95
9102.00,0.95
9101.00,0.95
9100.00,0.95
9099.00,0.95
9098.00,0.95
9097.00,0.95
9096.00,0.95
9095.00,0.95
9094.00,0.95
9093.00,0.95
9092.00,0.95
9091.00,0.95
9090.00,0.95
9089.00,0.95
9088.00,0.95
9087.00,0.95
9086.00,0.95
9085.00,0.95
9084.00,0.95
9083.00,0.95
9082.00,0.95
9081.00,0.95
9080.00,0.95
9079.00,0.96
9078.00,0.96
9077.00,0.96
9076.00,0.96
9075.00,0.96
9074.00,0.97
9073.00,0.97
9072.00,0.97
9071.00,0.97
9070.00,0.97
9069.00,0.97
9068.00,0.97
9067.00,0.97
9066.00,0.97
9065.00,0.97
9064.00,0.97
9063.00,0.97
9062.00,0.97
9061.00,0.97
9060.00,0.97
9059.00,0.97
9058.00,0.97
9057.00,0.96
9056.00,0.96
9055.00,0.96
9054.00,0.96
9053.00,0.95
9052.00,0.95
9051.00,0.95
9050.00,0.95
9049.00,0.94
9048.00,0.94
9047.00,0.94
9046.00,0.94
9045.00,0.94
9044.00,0.93
9043.00,0.93
9042.00,0.93
9041.00,0.93
9040.00,0.93
9039.00,0.93
9038.00,0.93
9037.00,0.93
9036.00,0.93
9035.00,0.93
9034.00,0.93
9033.00,0.93
9032.00,0.93
9031.00,0.93
9030.00,0.93
9029.00,0.93
9028.00,0.93
9027.00,0.93
9026.00,0.93
9025.00,0.93
9024.00,0.93
9023.00,0.93
9022.00,0.93
9021.00,0.93
9020.00,0.94
9019.00,0.94
9018.00,0.94
9017.00,0.94
9016.00,0.94
9015.00,0.95
9014.00,0.95
9013.00,0.95
9012.00,0.95
9011.00,0.95
9010.00,0.95
9009.00,0.96
9008.00,0.96
9007.00,0.96
9006.00,0.96
9005.00,0.96
9004.00,0.96
9003.00,0.96
9002.00,0.96
9001.00,0.96
9000.00,0.96
8999.00,0.96
8998.00,0.96
8997.00,0.96
8996.00,0.96
8995.00,0.96
8994.00,0.96
8993.00,0.96
8992.00,0.96
8991.00,0.96
8990.00,0.96
8989.00,0.96
8988.00,0.96
8987.00,0.96
8986.00,0.96
8985.00,0.96
8984.00,0.96
8983.00,0.96
8982.00,0.96
8981.00,0.96
8980.00,0.97
8979.00,0.97
8978.00,0.97
8977.00,0.97
8976.00,0.97
8975.00,0.96
8974.00,0.96
8973.00,0.96
8972.00,0.96
8971.00,0.96
8970.00,0.96
8969.00,0.95
8968.00,0.95
8967.00,0.95
8966.00,0.95
8965.00,0.95
8964.00,0.95
8963.00,0.95
8962.00,0.95
8961.00,0.95
8960.00,0.95
8959.00,0.95
8958.00,0.95
8957.00,0.95
8956.00,0.95
8955.00,0.95
8954.00,0.95
8953.00,0.95
8952.00,0.95
8951.00,0.95
8950.00,0.95
8949.00,0.95
8948.00,0.95
8947.00,0.95
8946.00,0.95
8945.00,0.95
8944.00,0.95
8943.00,0.95
8942.00,0.95
8941.00,0.95
8940.00,0.95
8939.00,0.95
8938.00,0.95
8937.00,0.95
8936.00,0.95
8935.00,0.95
8934.00,0.95
8933.00,0.95
8932.00,0.95
8931.00,0.95
8930.00,0.95
8929.00,0.95
8928.00,0.95
8927.00,0.95
8926.00,0.95
8925.00,0.95
8924.00,0.95
8923.00,0.96
8922.00,0.96
8921.00,0.96
8920.00,0.96
8919.00,0.96
8918.00,0.96
8917.00,0.96
8916.00,0.96
8915.00,0.96
8914.00,0.97
8913.00,0.97
8912.00,0.97
8911.00,0.97
8910.00,0.97
8909.00,0.96
8908.00,0.96
8907.00,0.96
8906.00,0.96
8905.00,0.96
8904.00,0.96
8903.00,0.96
8902.00,0.96
8901.00,0.96
8900.00,0.96
8899.00,0.96
8898.00,0.95
8897.00,0.95
8896.00,0.95
8895.00,0.95
8894.00,0.95
8893.00,0.95
8892.00,0.95
8891.00,0.95
8890.00,0.95
8889.00,0.95
8888.00,0.95
8887.00,0.95
8886.00,0.95
8885.00,0.95
8884.00,0.94
8883.00,0.94
8882.00,0.94
8881.00,0.94
8880.00,0.94
8879.00,0.94
8878.00,0.94
8877.00,0.94
8876.00,0.94
8875.00,0.95
8874.00,0.95
8873.00,0.95
8872.00,0.95
8871.00,0.95
8870.00,0.95
8869.00,0.95
8868.00,0.95
8867.00,0.95
8866.00,0.95
8865.00,0.95
8864.00,0.95
8863.00,0.95
8862.00,0.95
8861.00,0.95
8860.00,0.95
8859.00,0.95
8858.00,0.95
8857.00,0.95
8856.00,0.95
8855.00,0.95
8854.00,0.95
8853.00,0.95
8852.00,0.95
8851.00,0.96
8850.00,0.96
8849.00,0.96
8848.00,0.96
8847.00,0.96
8846.00,0.96
8845.00,0.96
8844.00,0.97
8843.00,0.97
8842.00,0.97
8841.00,0.97
8840.00,0.97
8839.00,0.97
8838.00,0.97
8837.00,0.97
8836.00,0.97
8835.00,0.97
8834.00,0.97
8833.00,0.97
8832.00,0.97
8831.00,0.97
8830.00,0.97
8829.00,0.97
8828.00,0.97
8827.00,0.97
8826.00,0.97
8825.00,0.96
8824.00,0.96
8823.00,0.96
8822.00,0.96
8821.00,0.96
8820.00,0.96
8819.00,0.95
8818.00,0.95
8817.00,0.95
8816.00,0.95
8815.00,0.95
8814.00,0.95
8813.00,0.95
8812.00,0.95
8811.00,0.95
8810.00,0.95
8809.00,0.95
8808.00,0.95
8807.00,0.95
8806.00,0.95
8805.00,0.95
8804.00,0.95
8803.00,0.96
8802.00,0.96
8801.00,0.96
8800.00,0.96
8799.00,0.96
8798.00,0.96
8797.00,0.97
8796.00,0.97
8795.00,0.97
8794.00,0.97
8793.00,0.97
8792.00,0.97
8791.00,0.97
8790.00,0.97
8789.00,0.97
8788.00,0.97
8787.00,0.97
8786.00,0.97
8785.00,0.97
8784.00,0.97
8783.00,0.97
8782.00,0.97
8781.00,0.97
8780.00,0.97
8779.00,0.97
8778.00,0.97
8777.00,0.96
8776.00,0.96
8775.00,0.96
8774.00,0.96
8773.00,0.96
8772.00,0.96
8771.00,0.96
8770.00,0.96
8769.00,0.95
8768.00,0.95
8767.00,0.95
8766.00,0.95
8765.00,0.95
8764.00,0.95
8763.00,0.95
8762.00,0.95
8761.00,0.95
8760.00,0.94
8759.00,0.94
8758.00,0.94
8757.00,0.94
8756.00,0.94
8755.00,0.94
8754.00,0.94
8753.00,0.94
8752.00,0.94
8751.00,0.94
8750.00,0.94
8749.00,0.94
8748.00,0.94
8747.00,0.94
8746.00,0.94
8745.00,0.93
8744.00,0.93
8743.00,0.93
8742.00,0.93
8741.00,0.93
8740.00,0.94
8739.00,0.94
8738.00,0.94
8737.00,0.94
8736.00,0.94
8735.00,0.94
8734.00,0.94
8733.00,0.94
8732.00,0.94
8731.00,0.94
8730.00,0.94
8729.00,0.94
8728.00,0.94
8727.00,0.94
8726.00,0.94
8725.00,0.94
8724.00,0.94
8723.00,0.94
8722.00,0.94
8721.00,0.94
8720.00,0.94
8719.00,0.94
8718.00,0.94
8717.00,0.94
8716.00,0.94
8715.00,0.94
8714.00,0.94
8713.00,0.94
8712.00,0.94
8711.00,0.94
8710.00,0.94
8709.00,0.94
8708.00,0.94
8707.00,0.94
8706.00,0.94
8705.00,0.94
8704.00,0.93
8703.00,0.93
8702.00,0.93
8701.00,0.93
8700.00,0.93
8699.00,0.93
8698.00,0.93
8697.00,0.93
8696.00,0.93
8695.00,0.92
8694.00,0.92
8693.00,0.92
8692.00,0.92
8691.00,0.92
8690.00,0.92
8689.00,0.92
8688.00,0.92
8687.00,0.92
8686.00,0.92
8685.00,0.92
8684.00,0.92
8683.00,0.92
8682.00,0.92
8681.00,0.92
8680.00,0.93
8679.00,0.93
8678.00,0.93
8677.00,0.93
8676.00,0.93
8675.00,0.93
8674.00,0.93
8673.00,0.93
8672.00,0.93
8671.00,0.93
8670.00,0.93
8669.00,0.93
8668.00,0.93
8667.00,0.93
8666.00,0.93
8665.00,0.92
8664.00,0.92
8663.00,0.92
8662.00,0.92
8661.00,0.92
8660.00,0.92
8659.00,0.92
8658.00,0.92
8657.00,0.92
8656.00,0.91
8655.00,0.91
8654.00,0.91
8653.00,0.91
8652.00,0.91
8651.00,0.91
8650.00,0.91
8649.00,0.91
8648.00,0.91
8647.00,0.91
8646.00,0.91
8645.00,0.91
8644.00,0.91
8643.00,0.91
8642.00,0.91
8641.00,0.90
8640.00,0.90
8639.00,0.90
8638.00,0.90
8637.00,0.90
8636.00,0.90
8635.00,0.90
8634.00,0.90
8633.00,0.90
8632.00,0.90
8631.00,0.90
8630.00,0.90
8629.00,0.90
8628.00,0.90
8627.00,0.90
8626.00,0.90
8625.00,0.90
8624.00,0.90
8623.00,0.90
8622.00,0.90
8621.00,0.91
8620.00,0.91
8619.00,0.91
8618.00,0.91
8617.00,0.91
8616.00,0.91
8615.00,0.92
8614.00,0.92
8613.00,0.92
8612.00,0.92
8611.00,0.92
8610.00,0.92
8609.00,0.92
8608.00,0.92
8607.00,0.92
8606.00,0.92
8605.00,0.92
8604.00,0.92
8603.00,0.92
8602.00,0.92
8601.00,0.92
8600.00,0.92
8599.00,0.92
8598.00,0.92
8597.00,0.92
8596.00,0.92
8595.00,0.92
8594.00,0.92
8593.00,0.92
8592.00,0.93
8591.00,0.93
8590.00,0.93
8589.00,0.93
8588.00,0.93
8587.00,0.93
8586.00,0.93
8585.00,0.93
8584.00,0.93
8583.00,0.93
8582.00,0.93
8581.00,0.93
8580.00,0.93
8579.00,0.93
8578.00,0.93
8577.00,0.93
8576.00,0.92
8575.00,0.92
8574.00,0.92
8573.00,0.92
8572.00,0.92
8571.00,0.92
8570.00,0.91
8569.00,0.91
8568.00,0.91
8567.00,0.91
8566.00,0.91
8565.00,0.90
8564.00,0.90
8563.00,0.90
8562.00,0.90
8561.00,0.90
8560.00,0.90
8559.00,0.90
8558.00,0.90
8557.00,0.90
8556.00,0.90
8555.00,0.90
8554.00,0.90
8553.00,0.90
8552.00,0.90
8551.00,0.90
8550.00,0.90
8549.00,0.90
8548.00,0.90
8547.00,0.90
8546.00,0.90
8545.00,0.90
8544.00,0.90
8543.00,0.90
8542.00,0.90
8541.00,0.90
8540.00,0.90
8539.00,0.90
8538.00,0.90
8537.00,0.90
8536.00,0.90
8535.00,0.90
8534.00,0.90
8533.00,0.90
8532.00,0.90
8531.00,0.90
8530.00,0.91
8529.00,0.91
8528.00,0.91
8527.00,0.91
8526.00,0.91
8525.00,0.91
8524.00,0.91
8523.00,0.91
8522.00,0.91
8521.00,0.91
8520.00,0.91
8519.00,0.91
8518.00,0.91
8517.00,0.91
8516.00,0.91
8515.00,0.91
8514.00,0.90
8513.00,0.90
8512.00,0.90
8511.00,0.90
8510.00,0.90
8509.00,0.90
8508.00,0.90
8507.00,0.90
8506.00,0.90
8505.00,0.90
8504.00,0.90
8503.00,0.90
8502.00,0.90
8501.00,0.90
8500.00,0.90
8499.00,0.90
8498.00,0.90
8497.00,0.90
8496.00,0.90
8495.00,0.90
8494.00,0.89
8493.00,0.89
8492.00,0.89
8491.00,0.89
8490.00,0.90
8489.00,0.90
8488.00,0.90
8487.00,0.90
8486.00,0.90
8485.00,0.90
8484.00,0.90
8483.00,0.90
8482.00,0.90
8481.00,0.90
8480.00,0.90
8479.00,0.90
8478.00,0.90
8477.00,0.90
8476.00,0.90
8475.00,0.90
8474.00,0.90
8473.00,0.90
8472.00,0.90
8471.00,0.90
8470.00,0.90
8469.00,0.90
8468.00,0.90
8467.00,0.90
8466.00,0.89
8465.00,0.89
8464.00,0.89
8463.00,0.89
8462.00,0.89
8461.00,0.89
8460.00,0.89
8459.00,0.88
8458.00,0.88
8457.00,0.88
8456.00,0.88
8455.00,0.88
8454.00,0.88
8453.00,0.88
8452.00,0.88
8451.00,0.88
8450.00,0.88
8449.00,0.88
8448.00,0.88
8447.00,0.88
8446.00,0.88
8445.00,0.88
8444.00,0.88
8443.00,0.88
8442.00,0.88
8441.00,0.88
8440.00,0.88
8439.00,0.88
8438.00,0.88
8437.00,0.88
8436.00,0.88
8435.00,0.88
8434.00,0.88
8433.00,0.88
8432.00,0.88
8431.00,0.89
8430.00,0.89
8429.00,0.89
8428.00,0.89
8427.00,0.89
8426.00,0.89
8425.00,0.89
8424.00,0.89
8423.00,0.89
8422.00,0.89
8421.00,0.89
8420.00,0.89
8419.00,0.89
8418.00,0.89
8417.00,0.89
8416.00,0.89
8415.00,0.90
8414.00,0.90
8413.00,0.90
8412.00,0.90
8411.00,0.90
8410.00,0.90
8409.00,0.90
8408.00,0.90
8407.00,0.90
8406.00,0.90
8405.00,0.90
8404.00,0.90
8403.00,0.90
8402.00,0.90
8401.00,0.89
8400.00,0.89
8399.00,0.89
8398.00,0.89
8397.00,0.89
8396.00,0.89
8395.00,0.89
8394.00,0.88
8393.00,0.88
8392.00,0.88
8391.00,0.88
8390.00,0.88
8389.00,0.88
8388.00,0.88
8387.00,0.88
8386.00,0.88
8385.00,0.88
8384.00,0.88
8383.00,0.88
8382.00,0.88
8381.00,0.88
8380.00,0.88
8379.00,0.88
8378.00,0.88
8377.00,0.88
8376.00,0.88
8375.00,0.88
8374.00,0.88
8373.00,0.88
8372.00,0.88
8371.00,0.89
8370.00,0.89
8369.00,0.89
8368.00,0.89
8367.00,0.89
8366.00,0.90
8365.00,0.90
8364.00,0.90
8363.00,0.90
8362.00,0.90
8361.00,0.90
8360.00,0.91
8359.00,0.91
8358.00,0.91
8357.00,0.91
8356.00,0.91
8355.00,0.91
8354.00,0.91
8353.00,0.91
8352.00,0.91
8351.00,0.90
8350.00,0.90
8349.00,0.90
8348.00,0.90
8347.00,0.90
8346.00,0.90
8345.00,0.90
8344.00,0.90
8343.00,0.90
8342.00,0.90
8341.00,0.90
8340.00,0.90
8339.00,0.90
8338.00,0.90
8337.00,0.90
8336.00,0.90
8335.00,0.90
8334.00,0.90
8333.00,0.90
8332.00,0.90
8331.00,0.90
8330.00,0.90
8329.00,0.90
8328.00,0.90
8327.00,0.90
8326.00,0.90
8325.00,0.90
8324.00,0.90
8323.00,0.90
8322.00,0.90
8321.00,0.90
8320.00,0.90
8319.00,0.90
8318.00,0.90
8317.00,0.90
8316.00,0.90
8315.00,0.90
8314.00,0.90
8313.00,0.91
8312.00,0.91
8311.00,0.91
8310.00,0.91
8309.00,0.91
8308.00,0.91
8307.00,0.91
8306.00,0.91
8305.00,0.91
8304.00,0.91
8303.00,0.91
8302.00,0.91
8301.00,0.91
8300.00,0.91
8299.00,0.91
8298.00,0.91
8297.00,0.91
8296.00,0.91
8295.00,0.91
8294.00,0.91
8293.00,0.91
8292.00,0.91
8291.00,0.92
8290.00,0.92
8289.00,0.92
8288.00,0.92
8287.00,0.92
8286.00,0.92
8285.00,0.92
8284.00,0.92
8283.00,0.92
8282.00,0.92
8281.00,0.91
8280.00,0.91
8279.00,0.91
8278.00,0.91
8277.00,0.91
8276.00,0.91
8275.00,0.91
8274.00,0.91
8273.00,0.91
8272.00,0.91
8271.00,0.91
8270.00,0.91
8269.00,0.91
8268.00,0.91
8267.00,0.91
8266.00,0.91
8265.00,0.91
8264.00,0.91
8263.00,0.91
8262.00,0.91
8261.00,0.91
8260.00,0.91
8259.00,0.91
8258.00,0.91
8257.00,0.91
8256.00,0.91
8255.00,0.91
8254.00,0.91
8253.00,0.91
8252.00,0.92
8251.00,0.92
8250.00,0.92
8249.00,0.92
8248.00,0.92
8247.00,0.92
8246.00,0.92
8245.00,0.92
8244.00,0.92
8243.00,0.92
8242.00,0.92
8241.00,0.92
8240.00,0.92
8239.00,0.92
8238.00,0.92
8237.00,0.92
8236.00,0.92
8235.00,0.92
8234.00,0.92
8233.00,0.92
8232.00,0.92
8231.00,0.92
8230.00,0.92
8229.00,0.92
8228.00,0.92
8227.00,0.92
8226.00,0.92
8225.00,0.92
8224.00,0.92
8223.00,0.92
8222.00,0.92
8221.00,0.92
8220.00,0.93
8219.00,0.93
8218.00,0.93
8217.00,0.93
8216.00,0.93
8215.00,0.93
8214.00,0.93
8213.00,0.93
8212.00,0.93
8211.00,0.93
8210.00,0.93
8209.00,0.93
8208.00,0.93
8207.00,0.93
8206.00,0.93
8205.00,0.93
8204.00,0.93
8203.00,0.93
8202.00,0.93
8201.00,0.94
8200.00,0.93
8199.00,0.93
8198.00,0.93
8197.00,0.93
8196.00,0.93
8195.00,0.93
8194.00,0.93
8193.00,0.93
8192.00,0.93
8191.00,0.93
8190.00,0.92
8189.00,0.92
8188.00,0.92
8187.00,0.92
8186.00,0.92
8185.00,0.92
8184.00,0.92
8183.00,0.92
8182.00,0.92
8181.00,0.92
8180.00,0.92
8179.00,0.92
8178.00,0.92
8177.00,0.92
8176.00,0.92
8175.00,0.92
8174.00,0.92
8173.00,0.92
8172.00,0.93
8171.00,0.93
8170.00,0.93
8169.00,0.93
8168.00,0.93
8167.00,0.93
8166.00,0.93
8165.00,0.93
8164.00,0.93
8163.00,0.93
8162.00,0.93
8161.00,0.93
8160.00,0.93
8159.00,0.93
8158.00,0.93
8157.00,0.93
8156.00,0.93
8155.00,0.93
8154.00,0.93
8153.00,0.93
8152.00,0.93
8151.00,0.93
8150.00,0.93
8149.00,0.93
8148.00,0.93
8147.00,0.93
8146.00,0.93
8145.00,0.93
8144.00,0.93
8143.00,0.93
8142.00,0.93
8141.00,0.93
8140.00,0.93
8139.00,0.93
8138.00,0.93
8137.00,0.93
8136.00,0.93
8135.00,0.93
8134.00,0.93
8133.00,0.93
8132.00,0.93
8131.00,0.93
8130.00,0.93
8129.00,0.93
8128.00,0.93
8127.00,0.94
8126.00,0.94
8125.00,0.94
8124.00,0.94
8123.00,0.94
8122.00,0.94
8121.00,0.94
8120.00,0.94
8119.00,0.94
8118.00,0.94
8117.00,0.95
8116.00,0.95
8115.00,0.95
8114.00,0.95
8113.00,0.95
8112.00,0.95
8111.00,0.95
8110.00,0.95
8109.00,0.95
8108.00,0.95
8107.00,0.95
8106.00,0.95
8105.00,0.95
8104.00,0.95
8103.00,0.95
8102.00,0.95
8101.00,0.95
8100.00,0.95
8099.00,0.95
8098.00,0.95
8097.00,0.95
8096.00,0.94
8095.00,0.94
8094.00,0.94
8093.00,0.94
8092.00,0.94
8091.00,0.94
8090.00,0.94
8089.00,0.94
8088.00,0.94
8087.00,0.95
8086.00,0.95
8085.00,0.95
8084.00,0.95
8083.00,0.95
8082.00,0.95
8081.00,0.95
8080.00,0.95
8079.00,0.95
8078.00,0.95
8077.00,0.95
8076.00,0.95
8075.00,0.95
8074.00,0.95
8073.00,0.95
8072.00,0.95
8071.00,0.95
8070.00,0.95
8069.00,0.95
8068.00,0.95
8067.00,0.95
8066.00,0.95
8065.00,0.95
8064.00,0.95
8063.00,0.95
8062.00,0.95
8061.00,0.95
8060.00,0.95
8059.00,0.95
8058.00,0.95
8057.00,0.95
8056.00,0.95
8055.00,0.95
8054.00,0.95
8053.00,0.95
8052.00,0.96
8051.00,0.96
8050.00,0.96
8049.00,0.96
8048.00,0.96
8047.00,0.96
8046.00,0.96
8045.00,0.96
8044.00,0.96
8043.00,0.96
8042.00,0.95
8041.00,0.95
8040.00,0.95
8039.00,0.95
8038.00,0.95
8037.00,0.95
8036.00,0.95
8035.00,0.95
8034.00,0.95
8033.00,0.95
8032.00,0.95
8031.00,0.95
8030.00,0.95
8029.00,0.94
8028.00,0.94
8027.00,0.94
8026.00,0.94
8025.00,0.94
8024.00,0.94
8023.00,0.94
8022.00,0.94
8021.00,0.94
8020.00,0.94
8019.00,0.94
8018.00,0.94
8017.00,0.94
8016.00,0.94
8015.00,0.94
8014.00,0.94
8013.00,0.95
8012.00,0.95
8011.00,0.95
8010.00,0.95
8009.00,0.95
8008.00,0.95
8007.00,0.95
8006.00,0.95
8005.00,0.95
8004.00,0.95
8003.00,0.95
8002.00,0.95
8001.00,0.95
8000.00,0.95
7999.00,0.95
7998.00,0.95
7997.00,0.96
7996.00,0.96
7995.00,0.96
7994.00,0.96
7993.00,0.96
7992.00,0.96
7991.00,0.96
7990.00,0.96
7989.00,0.96
7988.00,0.96
7987.00,0.96
7986.00,0.96
7985.00,0.96
7984.00,0.96
7983.00,0.96
7982.00,0.96
7981.00,0.96
7980.00,0.96
7979.00,0.95
7978.00,0.95
7977.00,0.95
7976.00,0.95
7975.00,0.95
7974.00,0.95
7973.00,0.95
7972.00,0.95
7971.00,0.95
7970.00,0.95
7969.00,0.95
7968.00,0.95
7967.00,0.95
7966.00,0.96
7965.00,0.96
7964.00,0.96
7963.00,0.96
7962.00,0.96
7961.00,0.96
7960.00,0.96
7959.00,0.96
7958.00,0.96
7957.00,0.96
7956.00,0.96
7955.00,0.96
7954.00,0.96
7953.00,0.96
7952.00,0.96
7951.00,0.96
7950.00,0.96
7949.00,0.96
7948.00,0.96
7947.00,0.96
7946.00,0.96
7945.00,0.96
7944.00,0.96
7943.00,0.96
7942.00,0.96
7941.00,0.96
7940.00,0.96
7939.00,0.96
7938.00,0.96
7937.00,0.96
7936.00,0.96
7935.00,0.96
7934.00,0.97
7933.00,0.97
7932.00,0.97
7931.00,0.97
7930.00,0.97
7929.00,0.97
7928.00,0.97
7927.00,0.97
7926.00,0.97
7925.00,0.97
7924.00,0.97
7923.00,0.97
7922.00,0.97
7921.00,0.97
7920.00,0.97
7919.00,0.97
7918.00,0.97
7917.00,0.97
7916.00,0.97
7915.00,0.97
7914.00,0.97
7913.00,0.97
7912.00,0.97
7911.00,0.97
7910.00,0.97
7909.00,0.97
7908.00,0.97
7907.00,0.97
7906.00,0.97
7905.00,0.97
7904.00,0.97
7903.00,0.97
7902.00,0.97
7901.00,0.97
7900.00,0.97
7899.00,0.97
7898.00,0.97
7897.00,0.97
7896.00,0.97
7895.00,0.97
7894.00,0.96
7893.00,0.96
7892.00,0.96
7891.00,0.96
7890.00,0.96
7889.00,0.96
7888.00,0.96
7887.00,0.96
7886.00,0.96
7885.00,0.96
7884.00,0.96
7883.00,0.96
7882.00,0.96
7881.00,0.96
7880.00,0.96
7879.00,0.96
7878.00,0.96
7877.00,0.96
7876.00,0.97
7875.00,0.97
7874.00,0.97
7873.00,0.97
7872.00,0.97
7871.00,0.97
7870.00,0.97
7869.00,0.97
7868.00,0.97
7867.00,0.97
7866.00,0.97
7865.00,0.97
7864.00,0.97
7863.00,0.97
7862.00,0.97
7861.00,0.97
7860.00,0.97
7859.00,0.97
7858.00,0.97
7857.00,0.97
7856.00,0.97
7855.00,0.97
7854.00,0.97
7853.00,0.96
7852.00,0.96
7851.00,0.96
7850.00,0.96
7849.00,0.96
7848.00,0.96
7847.00,0.96
7846.00,0.96
7845.00,0.96
7844.00,0.96
7843.00,0.96
7842.00,0.97
7841.00,0.97
7840.00,0.97
7839.00,0.97
7838.00,0.97
7837.00,0.97
7836.00,0.97
7835.00,0.97
7834.00,0.97
7833.00,0.97
7832.00,0.97
7831.00,0.97
7830.00,0.97
7829.00,0.97
7828.00,0.97
7827.00,0.97
7826.00,0.97
7825.00,0.97
7824.00,0.97
7823.00,0.97
7822.00,0.97
7821.00,0.97
7820.00,0.97
7819.00,0.97
7818.00,0.97
7817.00,0.98
7816.00,0.98
7815.00,0.98
7814.00,0.98
7813.00,0.98
7812.00,0.98
7811.00,0.98
7810.00,0.98
7809.00,0.98
7808.00,0.98
7807.00,0.98
7806.00,0.98
7805.00,0.98
7804.00,0.98
7803.00,0.98
7802.00,0.98
7801.00,0.97
7800.00,0.97
7799.00,0.97
7798.00,0.97
7797.00,0.97
7796.00,0.97
7795.00,0.97
7794.00,0.97
7793.00,0.96
7792.00,0.96
7791.00,0.96
7790.00,0.96
7789.00,0.96
7788.00,0.96
7787.00,0.96
7786.00,0.96
7785.00,0.96
7784.00,0.96
7783.00,0.96
7782.00,0.97
7781.00,0.97
7780.00,0.97
7779.00,0.97
7778.00,0.97
7777.00,0.97
7776.00,0.98
7775.00,0.98
7774.00,0.98
7773.00,0.98
7772.00,0.98
7771.00,0.98
7770.00,0.98
7769.00,0.98
7768.00,0.98
7767.00,0.98
7766.00,0.98
7765.00,0.98
7764.00,0.98
7763.00,0.98
7762.00,0.98
7761.00,0.97
7760.00,0.97
7759.00,0.97
7758.00,0.97
7757.00,0.97
7756.00,0.97
7755.00,0.97
7754.00,0.97
7753.00,0.97
7752.00,0.97
7751.00,0.97
7750.00,0.97
7749.00,0.97
7748.00,0.97
7747.00,0.97
7746.00,0.97
7745.00,0.97
7744.00,0.97
7743.00,0.97
7742.00,0.97
7741.00,0.97
7740.00,0.97
7739.00,0.97
7738.00,0.97
7737.00,0.97
7736.00,0.97
7735.00,0.97
7734.00,0.97
7733.00,0.97
7732.00,0.97
7731.00,0.97
7730.00,0.97
7729.00,0.97
7728.00,0.97
7727.00,0.97
7726.00,0.97
7725.00,0.97
7724.00,0.97
7723.00,0.97
7722.00,0.97
7721.00,0.97
7720.00,0.97
7719.00,0.97
7718.00,0.97
7717.00,0.97
7716.00,0.97
7715.00,0.97
7714.00,0.97
7713.00,0.97
7712.00,0.97
7711.00,0.97
7710.00,0.97
7709.00,0.97
7708.00,0.97
7707.00,0.97
7706.00,0.97
7705.00,0.97
7704.00,0.97
7703.00,0.97
7702.00,0.97
7701.00,0.97
7700.00,0.97
7699.00,0.97
7698.00,0.97
7697.00,0.97
7696.00,0.97
7695.00,0.98
7694.00,0.98
7693.00,0.98
7692.00,0.98
7691.00,0.98
7690.00,0.98
7689.00,0.98
7688.00,0.98
7687.00,0.98
7686.00,0.98
7685.00,0.98
7684.00,0.98
7683.00,0.98
7682.00,0.98
7681.00,0.98
7680.00,0.98
7679.00,0.98
7678.00,0.98
7677.00,0.98
7676.00,0.98
7675.00,0.98
7674.00,0.98
7673.00,0.98
7672.00,0.98
7671.00,0.98
7670.00,0.98
7669.00,0.98
7668.00,0.98
7667.00,0.98
7666.00,0.98
7665.00,0.98
7664.00,0.98
7663.00,0.98
7662.00,0.98
7661.00,0.98
7660.00,0.98
7659.00,0.98
7658.00,0.98
7657.00,0.98
7656.00,0.98
7655.00,0.98
7654.00,0.98
7653.00,0.98
7652.00,0.98
7651.00,0.98
7650.00,0.98
7649.00,0.98
7648.00,0.98
7647.00,0.98
7646.00,0.98
7645.00,0.98
7644.00,0.98
7643.00,0.98
7642.00,0.98
7641.00,0.98
7640.00,0.98
7639.00,0.98
7638.00,0.98
7637.00,0.98
7636.00,0.98
7635.00,0.98
7634.00,0.98
7633.00,0.98
7632.00,0.98
7631.00,0.97
7630.00,0.97
7629.00,0.97
7628.00,0.97
7627.00,0.97
7626.00,0.97
7625.00,0.97
7624.00,0.97
7623.00,0.97
7622.00,0.97
7621.00,0.97
7620.00,0.97
7619.00,0.97
7618.00,0.97
7617.00,0.97
7616.00,0.97
7615.00,0.97
7614.00,0.97
7613.00,0.97
7612.00,0.97
7611.00,0.97
7610.00,0.97
7609.00,0.97
7608.00,0.97
7607.00,0.97
7606.00,0.97
7605.00,0.98
7604.00,0.98
7603.00,0.98
7602.00,0.98
7601.00,0.98
7600.00,0.98
7599.00,0.98
7598.00,0.98
7597.00,0.98
7596.00,0.98
7595.00,0.98
7594.00,0.98
7593.00,0.98
7592.00,0.98
7591.00,0.98
7590.00,0.98
7589.00,0.98
7588.00,0.98
7587.00,0.98
7586.00,0.98
7585.00,0.98
7584.00,0.98
7583.00,0.98
7582.00,0.98
7581.00,0.98
7580.00,0.98
7579.00,0.98
7578.00,0.98
7577.00,0.98
7576.00,0.98
7575.00,0.98
7574.00,0.98
7573.00,0.98
7572.00,0.98
7571.00,0.98
7570.00,0.98
7569.00,0.98
7568.00,0.98
7567.00,0.98
7566.00,0.98
7565.00,0.97
7564.00,0.97
7563.00,0.97
7562.00,0.97
7561.00,0.97
7560.00,0.97
7559.00,0.97
7558.00,0.97
7557.00,0.97
7556.00,0.97
7555.00,0.98
7554.00,0.98
7553.00,0.98
7552.00,0.98
7551.00,0.98
7550.00,0.98
7549.00,0.98
7548.00,0.98
7547.00,0.98
7546.00,0.98
7545.00,0.98
7544.00,0.98
7543.00,0.98
7542.00,0.98
7541.00,0.98
7540.00,0.97
7539.00,0.97
7538.00,0.97
7537.00,0.97
7536.00,0.97
7535.00,0.97
7534.00,0.97
7533.00,0.97
7532.00,0.97
7531.00,0.97
7530.00,0.97
7529.00,0.97
7528.00,0.97
7527.00,0.97
7526.00,0.97
7525.00,0.97
7524.00,0.97
7523.00,0.97
7522.00,0.98
7521.00,0.98
7520.00,0.98
7519.00,0.98
7518.00,0.98
7517.00,0.98
7516.00,0.98
7515.00,0.98
7514.00,0.98
7513.00,0.98
7512.00,0.98
7511.00,0.97
7510.00,0.97
7509.00,0.97
7508.00,0.97
7507.00,0.97
7506.00,0.97
7505.00,0.97
7504.00,0.97
7503.00,0.97
7502.00,0.97
7501.00,0.97
7500.00,0.97
7499.00,0.97
7498.00,0.97
7497.00,0.97
7496.00,0.97
7495.00,0.97
7494.00,0.97
7493.00,0.97
7492.00,0.97
7491.00,0.97
7490.00,0.98
7489.00,0.98
7488.00,0.98
7487.00,0.98
7486.00,0.98
7485.00,0.98
7484.00,0.98
7483.00,0.98
7482.00,0.98
7481.00,0.97
7480.00,0.97
7479.00,0.97
7478.00,0.97
7477.00,0.97
7476.00,0.97
7475.00,0.97
7474.00,0.97
7473.00,0.97
7472.00,0.97
7471.00,0.97
7470.00,0.97
7469.00,0.97
7468.00,0.97
7467.00,0.97
7466.00,0.97
7465.00,0.97
7464.00,0.97
7463.00,0.97
7462.00,0.97
7461.00,0.97
7460.00,0.97
7459.00,0.97
7458.00,0.97
7457.00,0.97
7456.00,0.97
7455.00,0.97
7454.00,0.97
7453.00,0.97
7452.00,0.97
7451.00,0.97
7450.00,0.97
7449.00,0.97
7448.00,0.96
7447.00,0.96
7446.00,0.96
7445.00,0.96
7444.00,0.96
7443.00,0.96
7442.00,0.96
7441.00,0.96
7440.00,0.96
7439.00,0.96
7438.00,0.96
7437.00,0.96
7436.00,0.96
7435.00,0.96
7434.00,0.96
7433.00,0.96
7432.00,0.96
7431.00,0.96
7430.00,0.95
7429.00,0.95
7428.00,0.95
7427.00,0.95
7426.00,0.95
7425.00,0.95
7424.00,0.95
7423.00,0.95
7422.00,0.95
7421.00,0.95
7420.00,0.95
7419.00,0.95
7418.00,0.95
7417.00,0.95
7416.00,0.95
7415.00,0.95
7414.00,0.95
7413.00,0.95
7412.00,0.95
7411.00,0.95
7410.00,0.95
7409.00,0.95
7408.00,0.95
7407.00,0.95
7406.00,0.95
7405.00,0.95
7404.00,0.95
7403.00,0.95
7402.00,0.95
7401.00,0.95
7400.00,0.95
7399.00,0.95
7398.00,0.95
7397.00,0.95
7396.00,0.94
7395.00,0.94
7394.00,0.94
7393.00,0.94
7392.00,0.94
7391.00,0.94
7390.00,0.94
7389.00,0.93
7388.00,0.93
7387.00,0.93
7386.00,0.93
7385.00,0.93
7384.00,0.93
7383.00,0.93
7382.00,0.93
7381.00,0.92
7380.00,0.92
7379.00,0.92
7378.00,0.92
7377.00,0.92
7376.00,0.92
7375.00,0.92
7374.00,0.92
7373.00,0.92
7372.00,0.92
7371.00,0.92
7370.00,0.92
7369.00,0.92
7368.00,0.92
7367.00,0.92
7366.00,0.92
7365.00,0.92
7364.00,0.92
7363.00,0.92
7362.00,0.92
7361.00,0.92
7360.00,0.92
7359.00,0.92
7358.00,0.92
7357.00,0.92
7356.00,0.92
7355.00,0.92
7354.00,0.92
7353.00,0.92
7352.00,0.92
7351.00,0.92
7350.00,0.92
7349.00,0.92
7348.00,0.92
7347.00,0.92
7346.00,0.92
7345.00,0.92
7344.00,0.92
7343.00,0.92
7342.00,0.92
7341.00,0.92
7340.00,0.92
7339.00,0.92
7338.00,0.92
7337.00,0.92
7336.00,0.92
7335.00,0.92
7334.00,0.92
7333.00,0.92
7332.00,0.92
7331.00,0.92
7330.00,0.92
7329.00,0.92
7328.00,0.92
7327.00,0.92
7326.00,0.92
7325.00,0.92
7324.00,0.92
7323.00,0.92
7322.00,0.92
7321.00,0.92
7320.00,0.92
7319.00,0.92
7318.00,0.92
7317.00,0.92
7316.00,0.92
7315.00,0.92
7314.00,0.92
7313.00,0.92
7312.00,0.92
7311.00,0.92
7310.00,0.92
7309.00,0.92
7308.00,0.92
7307.00,0.92
7306.00,0.92
7305.00,0.92
7304.00,0.92
7303.00,0.91
7302.00,0.91
7301.00,0.91
7300.00,0.91
7299.00,0.91
7298.00,0.91
7297.00,0.91
7296.00,0.91
7295.00,0.91
7294.00,0.91
7293.00,0.91
7292.00,0.91
7291.00,0.91
7290.00,0.91
7289.00,0.91
7288.00,0.91
7287.00,0.91
7286.00,0.91
7285.00,0.91
7284.00,0.91
7283.00,0.91
7282.00,0.90
7281.00,0.90
7280.00,0.90
7279.00,0.90
7278.00,0.90
7277.00,0.90
7276.00,0.90
7275.00,0.90
7274.00,0.90
7273.00,0.90
7272.00,0.90
7271.00,0.90
7270.00,0.90
7269.00,0.90
7268.00,0.90
7267.00,0.90
7266.00,0.89
7265.00,0.89
7264.00,0.89
7263.00,0.89
7262.00,0.89
7261.00,0.89
7260.00,0.89
7259.00,0.89
7258.00,0.89
7257.00,0.88
7256.00,0.88
7255.00,0.88
7254.00,0.88
7253.00,0.88
7252.00,0.88
7251.00,0.88
7250.00,0.87
7249.00,0.87
7248.00,0.87
7247.00,0.87
7246.00,0.87
7245.00,0.87
7244.00,0.86
7243.00,0.86
7242.00,0.86
7241.00,0.86
7240.00,0.86
7239.00,0.85
7238.00,0.85
7237.00,0.85
7236.00,0.85
7235.00,0.85
7234.00,0.85
7233.00,0.84
7232.00,0.84
7231.00,0.84
7230.00,0.84
7229.00,0.84
7228.00,0.84
7227.00,0.83
7226.00,0.83
7225.00,0.83
7224.00,0.83
7223.00,0.83
7222.00,0.83
7221.00,0.83
7220.00,0.82
7219.00,0.82
7218.00,0.82
7217.00,0.82
7216.00,0.82
7215.00,0.82
7214.00,0.81
7213.00,0.81
7212.00,0.81
7211.00,0.81
7210.00,0.81
7209.00,0.81
7208.00,0.80
7207.00,0.80
7206.00,0.80
7205.00,0.80
7204.00,0.80
7203.00,0.79
7202.00,0.79
7201.00,0.79
7200.00,0.79
7199.00,0.79
7198.00,0.79
7197.00,0.79
7196.00,0.78
7195.00,0.78
7194.00,0.78
7193.00,0.78
7192.00,0.78
7191.00,0.78
7190.00,0.78
7189.00,0.77
7188.00,0.77
7187.00,0.77
7186.00,0.77
7185.00,0.77
7184.00,0.77
7183.00,0.77
7182.00,0.77
7181.00,0.76
7180.00,0.76
7179.00,0.76
7178.00,0.76
7177.00,0.76
7176.00,0.76
7175.00,0.75
7174.00,0.75
7173.00,0.75
7172.00,0.75
7171.00,0.75
7170.00,0.74
7169.00,0.74
7168.00,0.74
7167.00,0.74
7166.00,0.73
7165.00,0.73
7164.00,0.73
7163.00,0.73
7162.00,0.72
7161.00,0.72
7160.00,0.72
7159.00,0.72
7158.00,0.72
7157.00,0.72
7156.00,0.72
7155.00,0.72
7154.00,0.71
7153.00,0.71
7152.00,0.71
7151.00,0.71
7150.00,0.71
7149.00,0.71
7148.00,0.71
7147.00,0.71
7146.00,0.71
7145.00,0.70
7144.00,0.70
7143.00,0.70
7142.00,0.70
7141.00,0.70
7140.00,0.70
7139.00,0.70
7138.00,0.69
7137.00,0.69
7136.00,0.69
7135.00,0.69
7134.00,0.69
7133.00,0.69
7132.00,0.69
7131.00,0.68
7130.00,0.68
7129.00,0.68
7128.00,0.68
7127.00,0.68
7126.00,0.68
7125.00,0.67
7124.00,0.67
7123.00,0.67
7122.00,0.67
7121.00,0.67
7120.00,0.67
7119.00,0.66
7118.00,0.66
7117.00,0.66
7116.00,0.66
7115.00,0.66
7114.00,0.66
7113.00,0.66
7112.00,0.65
7111.00,0.65
7110.00,0.65
7109.00,0.65
7108.00,0.65
7107.00,0.65
7106.00,0.65
7105.00,0.64
7104.00,0.64
7103.00,0.64
7102.00,0.64
7101.00,0.64
7100.00,0.64
7099.00,0.63
7098.00,0.63
7097.00,0.63
7096.00,0.63
7095.00,0.63
7094.00,0.62
7093.00,0.62
7092.00,0.62
7091.00,0.62
7090.00,0.62
7089.00,0.62
7088.00,0.61
7087.00,0.61
7086.00,0.61
7085.00,0.61
7084.00,0.61
7083.00,0.61
7082.00,0.61
7081.00,0.61
7080.00,0.60
7079.00,0.60
7078.00,0.60
7077.00,0.60
7076.00,0.60
7075.00,0.60
7074.00,0.60
7073.00,0.60
7072.00,0.60
7071.00,0.60
7070.00,0.59
7069.00,0.59
7068.00,0.59
7067.00,0.59
7066.00,0.59
7065.00,0.59
7064.00,0.59
7063.00,0.59
7062.00,0.59
7061.00,0.58
7060.00,0.58
7059.00,0.58
7058.00,0.58
7057.00,0.58
7056.00,0.58
7055.00,0.58
7054.00,0.58
7053.00,0.57
7052.00,0.57
7051.00,0.57
7050.00,0.57
7049.00,0.57
7048.00,0.57
7047.00,0.57
7046.00,0.57
7045.00,0.57
7044.00,0.57
7043.00,0.56
7042.00,0.56
7041.00,0.56
7040.00,0.56
7039.00,0.56
7038.00,0.56
7037.00,0.56
7036.00,0.56
7035.00,0.56
7034.00,0.56
7033.00,0.56
7032.00,0.56
7031.00,0.56
7030.00,0.56
7029.00,0.56
7028.00,0.55
7027.00,0.55
7026.00,0.55
7025.00,0.55
7024.00,0.55
7023.00,0.55
7022.00,0.55
7021.00,0.55
7020.00,0.55
7019.00,0.54
7018.00,0.54
7017.00,0.54
7016.00,0.54
7015.00,0.54
7014.00,0.54
7013.00,0.54
7012.00,0.54
7011.00,0.54
7010.00,0.54
7009.00,0.54
7008.00,0.54
7007.00,0.54
7006.00,0.53
7005.00,0.53
7004.00,0.53
7003.00,0.53
7002.00,0.53
7001.00,0.53
7000.00,0.53
6999.00,0.53
6998.00,0.53
6997.00,0.53
6996.00,0.53
6995.00,0.53
6994.00,0.53
6993.00,0.53
6992.00,0.53
6991.00,0.53
6990.00,0.52
6989.00,0.52
6988.00,0.52
6987.00,0.52
6986.00,0.52
6985.00,0.52
6984.00,0.52
6983.00,0.52
6982.00,0.52
6981.00,0.52
6980.00,0.52
6979.00,0.52
6978.00,0.52
6977.00,0.52
6976.00,0.52
6975.00,0.52
6974.00,0.52
6973.00,0.52
6972.00,0.52
6971.00,0.52
6970.00,0.52
6969.00,0.52
6968.00,0.52
6967.00,0.52
6966.00,0.52
6965.00,0.52
6964.00,0.52
6963.00,0.52
6962.00,0.52
6961.00,0.52
6960.00,0.52
6959.00,0.52
6958.00,0.52
6957.00,0.52
6956.00,0.51
6955.00,0.51
6954.00,0.51
6953.00,0.51
6952.00,0.51
6951.00,0.51
6950.00,0.51
6949.00,0.51
6948.00,0.51
6947.00,0.51
6946.00,0.51
6945.00,0.51
6944.00,0.51
6943.00,0.51
6942.00,0.51
6941.00,0.51
6940.00,0.51
6939.00,0.51
6938.00,0.51
6937.00,0.51
6936.00,0.51
6935.00,0.51
6934.00,0.51
6933.00,0.51
6932.00,0.51
6931.00,0.51
6930.00,0.51
6929.00,0.51
6928.00,0.51
6927.00,0.51
6926.00,0.51
6925.00,0.51
6924.00,0.51
6923.00,0.51
6922.00,0.51
6921.00,0.51
6920.00,0.51
6919.00,0.51
6918.00,0.51
6917.00,0.51
6916.00,0.51
6915.00,0.51
6914.00,0.51
6913.00,0.51
6912.00,0.51
6911.00,0.51
6910.00,0.51
6909.00,0.51
6908.00,0.51
6907.00,0.51
6906.00,0.51
6905.00,0.51
6904.00,0.51
6903.00,0.51
6902.00,0.50
6901.00,0.50
6900.00,0.50
6899.00,0.50
6898.00,0.50
6897.00,0.50
6896.00,0.50
6895.00,0.50
6894.00,0.50
6893.00,0.50
6892.00,0.50
6891.00,0.50
6890.00,0.50
6889.00,0.50
6888.00,0.50
6887.00,0.50
6886.00,0.50
6885.00,0.50
6884.00,0.50
6883.00,0.50
6882.00,0.50
6881.00,0.50
6880.00,0.50
6879.00,0.50
6878.00,0.50
6877.00,0.50
6876.00,0.50
6875.00,0.50
6874.00,0.50
6873.00,0.50
6872.00,0.50
6871.00,0.50
6870.00,0.50
6869.00,0.50
6868.00,0.50
6867.00,0.50
6866.00,0.50
6865.00,0.50
6864.00,0.50
6863.00,0.50
6862.00,0.50
6861.00,0.50
6860.00,0.50
6859.00,0.50
6858.00,0.50
6857.00,0.50
6856.00,0.50
6855.00,0.50
6854.00,0.50
6853.00,0.50
6852.00,0.50
6851.00,0.50
6850.00,0.50
6849.00,0.50
6848.00,0.50
6847.00,0.50
6846.00,0.50
6845.00,0.50
6844.00,0.50
6843.00,0.50
6842.00,0.50
6841.00,0.50
6840.00,0.50
6839.00,0.50
6838.00,0.50
6837.00,0.50
6836.00,0.50
6835.00,0.50
6834.00,0.50
6833.00,0.50
6832.00,0.50
6831.00,0.50
6830.00,0.50
6829.00,0.50
6828.00,0.50
6827.00,0.50
6826.00,0.50
6825.00,0.50
6824.00,0.50
6823.00,0.50
6822.00,0.50
6821.00,0.50
6820.00,0.50
6819.00,0.50
6818.00,0.50
6817.00,0.51
6816.00,0.51
6815.00,0.51
6814.00,0.51
6813.00,0.51
6812.00,0.51
6811.00,0.51
6810.00,0.51
6809.00,0.51
6808.00,0.51
6807.00,0.51
6806.00,0.51
6805.00,0.51
6804.00,0.51
6803.00,0.51
6802.00,0.51
6801.00,0.51
6800.00,0.51
6799.00,0.51
6798.00,0.51
6797.00,0.51
6796.00,0.51
6795.00,0.51
6794.00,0.51
6793.00,0.51
6792.00,0.51
6791.00,0.51
6790.00,0.51
6789.00,0.51
6788.00,0.51
6787.00,0.52
6786.00,0.52
6785.00,0.52
6784.00,0.52
6783.00,0.52
6782.00,0.52
6781.00,0.52
6780.00,0.52
6779.00,0.52
6778.00,0.52
6777.00,0.52
6776.00,0.52
6775.00,0.52
6774.00,0.52
6773.00,0.53
6772.00,0.53
6771.00,0.53
6770.00,0.53
6769.00,0.53
6768.00,0.53
6767.00,0.53
6766.00,0.53
6765.00,0.53
6764.00,0.53
6763.00,0.53
6762.00,0.53
6761.00,0.53
6760.00,0.53
6759.00,0.53
6758.00,0.53
6757.00,0.53
6756.00,0.53
6755.00,0.53
6754.00,0.53
6753.00,0.53
6752.00,0.54
6751.00,0.54
6750.00,0.54
6749.00,0.54
6748.00,0.54
6747.00,0.54
6746.00,0.54
6745.00,0.54
6744.00,0.54
6743.00,0.54
6742.00,0.54
6741.00,0.54
6740.00,0.54
6739.00,0.54
6738.00,0.54
6737.00,0.54
6736.00,0.55
6735.00,0.55
6734.00,0.55
6733.00,0.55
6732.00,0.55
6731.00,0.55
6730.00,0.55
6729.00,0.55
6728.00,0.55
6727.00,0.55
6726.00,0.55
6725.00,0.55
6724.00,0.55
6723.00,0.55
6722.00,0.55
6721.00,0.55
6720.00,0.55
6719.00,0.55
6718.00,0.55
6717.00,0.55
6716.00,0.56
6715.00,0.56
6714.00,0.56
6713.00,0.56
6712.00,0.56
6711.00,0.56
6710.00,0.56
6709.00,0.56
6708.00,0.56
6707.00,0.56
6706.00,0.56
6705.00,0.56
6704.00,0.56
6703.00,0.56
6702.00,0.56
6701.00,0.56
6700.00,0.56
6699.00,0.56
6698.00,0.56
6697.00,0.57
6696.00,0.57
6695.00,0.57
6694.00,0.57
6693.00,0.57
6692.00,0.57
6691.00,0.57
6690.00,0.57
6689.00,0.57
6688.00,0.57
6687.00,0.57
6686.00,0.57
6685.00,0.57
6684.00,0.57
6683.00,0.57
6682.00,0.58
6681.00,0.58
6680.00,0.58
6679.00,0.58
6678.00,0.58
6677.00,0.58
6676.00,0.58
6675.00,0.58
6674.00,0.58
6673.00,0.59
6672.00,0.59
6671.00,0.59
6670.00,0.59
6669.00,0.59
6668.00,0.59
6667.00,0.59
6666.00,0.59
6665.00,0.59
6664.00,0.59
6663.00,0.59
6662.00,0.59
6661.00,0.59
6660.00,0.60
6659.00,0.60
6658.00,0.60
6657.00,0.60
6656.00,0.60
6655.00,0.60
6654.00,0.60
6653.00,0.60
6652.00,0.60
6651.00,0.60
6650.00,0.60
6649.00,0.60
6648.00,0.60
6647.00,0.60
6646.00,0.60
6645.00,0.60
6644.00,0.60
6643.00,0.61
6642.00,0.61
6641.00,0.61
6640.00,0.61
6639.00,0.61
6638.00,0.61
6637.00,0.61
6636.00,0.61
6635.00,0.61
6634.00,0.61
6633.00,0.61
6632.00,0.61
6631.00,0.61
6630.00,0.61
6629.00,0.61
6628.00,0.61
6627.00,0.62
6626.00,0.62
6625.00,0.62
6624.00,0.62
6623.00,0.62
6622.00,0.62
6621.00,0.62
6620.00,0.62
6619.00,0.62
6618.00,0.62
6617.00,0.62
6616.00,0.62
6615.00,0.62
6614.00,0.63
6613.00,0.63
6612.00,0.63
6611.00,0.63
6610.00,0.63
6609.00,0.63
6608.00,0.63
6607.00,0.63
6606.00,0.63
6605.00,0.63
6604.00,0.63
6603.00,0.64
6602.00,0.64
6601.00,0.64
6600.00,0.64
6599.00,0.64
6598.00,0.64
6597.00,0.64
6596.00,0.64
6595.00,0.64
6594.00,0.64
6593.00,0.64
6592.00,0.64
6591.00,0.65
6590.00,0.65
6589.00,0.65
6588.00,0.65
6587.00,0.65
6586.00,0.65
6585.00,0.65
6584.00,0.65
6583.00,0.65
6582.00,0.65
6581.00,0.65
6580.00,0.65
6579.00,0.65
6578.00,0.65
6577.00,0.65
6576.00,0.65
6575.00,0.65
6574.00,0.66
6573.00,0.66
6572.00,0.66
6571.00,0.66
6570.00,0.66
6569.00,0.66
6568.00,0.66
6567.00,0.66
6566.00,0.66
6565.00,0.66
6564.00,0.66
6563.00,0.66
6562.00,0.66
6561.00,0.66
6560.00,0.67
6559.00,0.67
6558.00,0.67
6557.00,0.67
6556.00,0.67
6555.00,0.67
6554.00,0.67
6553.00,0.67
6552.00,0.67
6551.00,0.67
6550.00,0.67
6549.00,0.67
6548.00,0.67
6547.00,0.67
6546.00,0.67
6545.00,0.67
6544.00,0.67
6543.00,0.67
6542.00,0.67
6541.00,0.67
6540.00,0.67
6539.00,0.67
6538.00,0.67
6537.00,0.67
6536.00,0.67
6535.00,0.67
6534.00,0.67
6533.00,0.67
6532.00,0.67
6531.00,0.67
6530.00,0.67
6529.00,0.67
6528.00,0.67
6527.00,0.67
6526.00,0.68
6525.00,0.68
6524.00,0.68
6523.00,0.68
6522.00,0.68
6521.00,0.68
6520.00,0.68
6519.00,0.68
6518.00,0.68
6517.00,0.68
6516.00,0.68
6515.00,0.68
6514.00,0.68
6513.00,0.68
6512.00,0.68
6511.00,0.68
6510.00,0.68
6509.00,0.69
6508.00,0.69
6507.00,0.69
6506.00,0.69
6505.00,0.69
6504.00,0.69
6503.00,0.69
6502.00,0.69
6501.00,0.69
6500.00,0.69
6499.00,0.69
6498.00,0.69
6497.00,0.69
6496.00,0.69
6495.00,0.69
6494.00,0.69
6493.00,0.69
6492.00,0.69
6491.00,0.69
6490.00,0.69
6489.00,0.69
6488.00,0.69
6487.00,0.69
6486.00,0.69
6485.00,0.69
6484.00,0.69
6483.00,0.70
6482.00,0.70
6481.00,0.70
6480.00,0.70
6479.00,0.70
6478.00,0.70
6477.00,0.70
6476.00,0.70
6475.00,0.70
6474.00,0.70
6473.00,0.70
6472.00,0.70
6471.00,0.70
6470.00,0.70
6469.00,0.70
6468.00,0.71
6467.00,0.71
6466.00,0.71
6465.00,0.71
6464.00,0.71
6463.00,0.71
6462.00,0.71
6461.00,0.71
6460.00,0.71
6459.00,0.71
6458.00,0.71
6457.00,0.71
6456.00,0.71
6455.00,0.71
6454.00,0.71
6453.00,0.71
6452.00,0.71
6451.00,0.71
6450.00,0.71
6449.00,0.71
6448.00,0.71
6447.00,0.71
6446.00,0.71
6445.00,0.71
6444.00,0.72
6443.00,0.72
6442.00,0.72
6441.00,0.72
6440.00,0.72
6439.00,0.72
6438.00,0.72
6437.00,0.72
6436.00,0.72
6435.00,0.72
6434.00,0.72
6433.00,0.72
6432.00,0.72
6431.00,0.72
6430.00,0.72
6429.00,0.72
6428.00,0.72
6427.00,0.72
6426.00,0.72
6425.00,0.72
6424.00,0.72
6423.00,0.72
6422.00,0.72
6421.00,0.72
6420.00,0.72
6419.00,0.72
6418.00,0.72
6417.00,0.72
6416.00,0.72
6415.00,0.72
6414.00,0.72
6413.00,0.72
6412.00,0.72
6411.00,0.72
6410.00,0.72
6409.00,0.72
6408.00,0.72
6407.00,0.72
6406.00,0.72
6405.00,0.72
6404.00,0.73
6403.00,0.73
6402.00,0.73
6401.00,0.73
6400.00,0.73
6399.00,0.73
6398.00,0.73
6397.00,0.73
6396.00,0.73
6395.00,0.73
6394.00,0.73
6393.00,0.73
6392.00,0.73
6391.00,0.74
6390.00,0.74
6389.00,0.74
6388.00,0.74
6387.00,0.74
6386.00,0.74
6385.00,0.74
6384.00,0.74
6383.00,0.74
6382.00,0.74
6381.00,0.74
6380.00,0.74
6379.00,0.74
6378.00,0.74
6377.00,0.74
6376.00,0.74
6375.00,0.74
6374.00,0.74
6373.00,0.74
6372.00,0.74
6371.00,0.74
6370.00,0.74
6369.00,0.74
6368.00,0.74
6367.00,0.75
6366.00,0.75
6365.00,0.75
6364.00,0.75
6363.00,0.75
6362.00,0.75
6361.00,0.75
6360.00,0.75
6359.00,0.75
6358.00,0.75
6357.00,0.75
6356.00,0.75
6355.00,0.75
6354.00,0.75
6353.00,0.75
6352.00,0.75
6351.00,0.75
6350.00,0.75
6349.00,0.75
6348.00,0.75
6347.00,0.75
6346.00,0.75
6345.00,0.75
6344.00,0.75
6343.00,0.75
6342.00,0.75
6341.00,0.75
6340.00,0.75
6339.00,0.75
6338.00,0.75
6337.00,0.75
6336.00,0.75
6335.00,0.75
6334.00,0.76
6333.00,0.76
6332.00,0.76
6331.00,0.76
6330.00,0.76
6329.00,0.76
6328.00,0.76
6327.00,0.76
6326.00,0.76
6325.00,0.76
6324.00,0.76
6323.00,0.76
6322.00,0.76
6321.00,0.76
6320.00,0.76
6319.00,0.76
6318.00,0.76
6317.00,0.76
6316.00,0.76
6315.00,0.76
6314.00,0.77
6313.00,0.77
6312.00,0.77
6311.00,0.77
6310.00,0.77
6309.00,0.77
6308.00,0.77
6307.00,0.77
6306.00,0.77
6305.00,0.77
6304.00,0.77
6303.00,0.78
6302.00,0.78
6301.00,0.78
6300.00,0.78
6299.00,0.78
6298.00,0.78
6297.00,0.78
6296.00,0.78
6295.00,0.78
6294.00,0.78
6293.00,0.78
6292.00,0.78
6291.00,0.78
6290.00,0.79
6289.00,0.79
6288.00,0.79
6287.00,0.79
6286.00,0.79
6285.00,0.79
6284.00,0.79
6283.00,0.79
6282.00,0.79
6281.00,0.79
6280.00,0.79
6279.00,0.79
6278.00,0.79
6277.00,0.79
6276.00,0.79
6275.00,0.79
6274.00,0.79
6273.00,0.79
6272.00,0.79
6271.00,0.80
6270.00,0.80
6269.00,0.80
6268.00,0.80
6267.00,0.80
6266.00,0.80
6265.00,0.80
6264.00,0.80
6263.00,0.80
6262.00,0.80
6261.00,0.80
6260.00,0.80
6259.00,0.80
6258.00,0.80
6257.00,0.80
6256.00,0.80
6255.00,0.81
6254.00,0.81
6253.00,0.81
6252.00,0.81
6251.00,0.81
6250.00,0.81
6249.00,0.81
6248.00,0.81
6247.00,0.81
6246.00,0.81
6245.00,0.81
6244.00,0.81
6243.00,0.81
6242.00,0.81
6241.00,0.81
6240.00,0.82
6239.00,0.82
6238.00,0.82
6237.00,0.82
6236.00,0.82
6235.00,0.82
6234.00,0.82
6233.00,0.82
6232.00,0.82
6231.00,0.82
6230.00,0.82
6229.00,0.83
6228.00,0.83
6227.00,0.83
6226.00,0.83
6225.00,0.83
6224.00,0.83
6223.00,0.83
6222.00,0.83
6221.00,0.83
6220.00,0.83
6219.00,0.83
6218.00,0.84
6217.00,0.84
6216.00,0.84
6215.00,0.84
6214.00,0.84
6213.00,0.84
6212.00,0.84
6211.00,0.84
6210.00,0.84
6209.00,0.84
6208.00,0.84
6207.00,0.84
6206.00,0.84
6205.00,0.85
6204.00,0.85
6203.00,0.85
6202.00,0.85
6201.00,0.85
6200.00,0.85
6199.00,0.85
6198.00,0.85
6197.00,0.85
6196.00,0.85
6195.00,0.85
6194.00,0.85
6193.00,0.85
6192.00,0.85
6191.00,0.86
6190.00,0.86
6189.00,0.86
6188.00,0.86
6187.00,0.86
6186.00,0.86
6185.00,0.86
6184.00,0.86
6183.00,0.86
6182.00,0.86
6181.00,0.86
6180.00,0.86
6179.00,0.86
6178.00,0.86
6177.00,0.86
6176.00,0.86
6175.00,0.86
6174.00,0.87
6173.00,0.87
6172.00,0.87
6171.00,0.87
6170.00,0.87
6169.00,0.87
6168.00,0.87
6167.00,0.87
6166.00,0.87
6165.00,0.87
6164.00,0.87
6163.00,0.87
6162.00,0.87
6161.00,0.87
6160.00,0.88
6159.00,0.88
6158.00,0.88
6157.00,0.88
6156.00,0.88
6155.00,0.88
6154.00,0.88
6153.00,0.88
6152.00,0.88
6151.00,0.88
6150.00,0.89
6149.00,0.89
6148.00,0.89
6147.00,0.89
6146.00,0.89
6145.00,0.89
6144.00,0.89
6143.00,0.89
6142.00,0.89
6141.00,0.89
6140.00,0.89
6139.00,0.89
6138.00,0.89
6137.00,0.90
6136.00,0.90
6135.00,0.90
6134.00,0.90
6133.00,0.90
6132.00,0.90
6131.00,0.90
6130.00,0.90
6129.00,0.90
6128.00,0.90
6127.00,0.90
6126.00,0.90
6125.00,0.90
6124.00,0.90
6123.00,0.91
6122.00,0.91
6121.00,0.91
6120.00,0.91
6119.00,0.91
6118.00,0.91
6117.00,0.91
6116.00,0.91
6115.00,0.91
6114.00,0.91
6113.00,0.91
6112.00,0.91
6111.00,0.91
6110.00,0.91
6109.00,0.92
6108.00,0.92
6107.00,0.92
6106.00,0.92
6105.00,0.92
6104.00,0.92
6103.00,0.92
6102.00,0.92
6101.00,0.92
6100.00,0.92
6099.00,0.92
6098.00,0.92
6097.00,0.92
6096.00,0.92
6095.00,0.92
6094.00,0.92
6093.00,0.93
6092.00,0.93
6091.00,0.93
6090.00,0.93
6089.00,0.93
6088.00,0.93
6087.00,0.93
6086.00,0.93
6085.00,0.93
6084.00,0.93
6083.00,0.93
6082.00,0.93
6081.00,0.93
6080.00,0.93
6079.00,0.93
6078.00,0.93
6077.00,0.94
6076.00,0.94
6075.00,0.94
6074.00,0.94
6073.00,0.94
6072.00,0.94
6071.00,0.94
6070.00,0.94
6069.00,0.94
6068.00,0.94
6067.00,0.94
6066.00,0.95
6065.00,0.95
6064.00,0.95
6063.00,0.95
6062.00,0.95
6061.00,0.95
6060.00,0.95
6059.00,0.95
6058.00,0.95
6057.00,0.95
6056.00,0.95
6055.00,0.95
6054.00,0.95
6053.00,0.95
6052.00,0.95
6051.00,0.95
6050.00,0.95
6049.00,0.95
6048.00,0.95
6047.00,0.95
6046.00,0.95
6045.00,0.95
6044.00,0.95
6043.00,0.95
6042.00,0.95
6041.00,0.95
6040.00,0.95
6039.00,0.95
6038.00,0.95
6037.00,0.96
6036.00,0.96
6035.00,0.96
6034.00,0.96
6033.00,0.96
6032.00,0.96
6031.00,0.96
6030.00,0.96
6029.00,0.96
6028.00,0.96
6027.00,0.96
6026.00,0.96
6025.00,0.96
6024.00,0.96
6023.00,0.96
6022.00,0.96
6021.00,0.96
6020.00,0.96
6019.00,0.96
6018.00,0.96
6017.00,0.96
6016.00,0.96
6015.00,0.96
6014.00,0.96
6013.00,0.96
6012.00,0.96
6011.00,0.96
6010.00,0.96
6009.00,0.96
6008.00,0.96
6007.00,0.96
6006.00,0.96
6005.00,0.96
6004.00,0.96
6003.00,0.96
6002.00,0.96
6001.00,0.95
6000.00,0.95
5999.00,0.95
5998.00,0.95
5997.00,0.95
5996.00,0.95
5995.00,0.95
5994.00,0.95
5993.00,0.95
5992.00,0.95
5991.00,0.95
5990.00,0.95
5989.00,0.95
5988.00,0.94
5987.00,0.94
5986.00,0.94
5985.00,0.94
5984.00,0.94
5983.00,0.94
5982.00,0.94
5981.00,0.93
5980.00,0.93
5979.00,0.93
5978.00,0.93
5977.00,0.92
5976.00,0.92
5975.00,0.92
5974.00,0.92
5973.00,0.91
5972.00,0.91
5971.00,0.91
5970.00,0.91
5969.00,0.90
5968.00,0.90
5967.00,0.90
5966.00,0.89
5965.00,0.89
5964.00,0.88
5963.00,0.88
5962.00,0.88
5961.00,0.87
5960.00,0.87
5959.00,0.86
5958.00,0.86
5957.00,0.85
5956.00,0.85
5955.00,0.85
5954.00,0.84
5953.00,0.84
5952.00,0.83
5951.00,0.83
5950.00,0.83
5949.00,0.82
5948.00,0.82
5947.00,0.82
5946.00,0.81
5945.00,0.81
5944.00,0.81
5943.00,0.81
5942.00,0.81
5941.00,0.81
5940.00,0.80
5939.00,0.80
5938.00,0.80
5937.00,0.80
5936.00,0.80
5935.00,0.80
5934.00,0.80
5933.00,0.80
5932.00,0.80
5931.00,0.80
5930.00,0.80
5929.00,0.80
5928.00,0.80
5927.00,0.80
5926.00,0.79
5925.00,0.79
5924.00,0.79
5923.00,0.79
5922.00,0.79
5921.00,0.79
5920.00,0.79
5919.00,0.79
5918.00,0.79
5917.00,0.78
5916.00,0.78
5915.00,0.78
5914.00,0.78
5913.00,0.78
5912.00,0.78
5911.00,0.77
5910.00,0.77
5909.00,0.77
5908.00,0.77
5907.00,0.77
5906.00,0.77
5905.00,0.77
5904.00,0.77
5903.00,0.77
5902.00,0.77
5901.00,0.77
5900.00,0.77
5899.00,0.77
5898.00,0.77
5897.00,0.77
5896.00,0.77
5895.00,0.77
5894.00,0.77
5893.00,0.77
5892.00,0.77
5891.00,0.77
5890.00,0.77
5889.00,0.78
5888.00,0.78
5887.00,0.78
5886.00,0.78
5885.00,0.78
5884.00,0.78
5883.00,0.78
5882.00,0.79
5881.00,0.79
5880.00,0.79
5879.00,0.79
5878.00,0.79
5877.00,0.79
5876.00,0.79
5875.00,0.80
5874.00,0.80
5873.00,0.80
5872.00,0.80
5871.00,0.80
5870.00,0.80
5869.00,0.80
5868.00,0.81
5867.00,0.81
5866.00,0.81
5865.00,0.81
5864.00,0.81
5863.00,0.81
5862.00,0.81
5861.00,0.81
5860.00,0.82
5859.00,0.82
5858.00,0.82
5857.00,0.82
5856.00,0.82
5855.00,0.82
5854.00,0.82
5853.00,0.82
5852.00,0.82
5851.00,0.82
5850.00,0.82
5849.00,0.82
5848.00,0.82
5847.00,0.82
5846.00,0.82
5845.00,0.82
5844.00,0.82
5843.00,0.82
5842.00,0.82
5841.00,0.82
5840.00,0.82
5839.00,0.82
5838.00,0.82
5837.00,0.82
5836.00,0.82
5835.00,0.82
5834.00,0.82
5833.00,0.82
5832.00,0.82
5831.00,0.82
5830.00,0.82
5829.00,0.82
5828.00,0.82
5827.00,0.82
5826.00,0.82
5825.00,0.82
5824.00,0.82
5823.00,0.82
5822.00,0.82
5821.00,0.82
5820.00,0.82
5819.00,0.82
5818.00,0.82
5817.00,0.82
5816.00,0.82
5815.00,0.82
5814.00,0.82
5813.00,0.82
5812.00,0.82
5811.00,0.82
5810.00,0.82
5809.00,0.82
5808.00,0.82
5807.00,0.82
5806.00,0.82
5805.00,0.82
5804.00,0.82
5803.00,0.82
5802.00,0.82
5801.00,0.81
5800.00,0.81
5799.00,0.81
5798.00,0.81
5797.00,0.81
5796.00,0.81
5795.00,0.81
5794.00,0.81
5793.00,0.81
5792.00,0.80
5791.00,0.80
5790.00,0.80
5789.00,0.80
5788.00,0.80
5787.00,0.80
5786.00,0.80
5785.00,0.80
5784.00,0.80
5783.00,0.80
5782.00,0.80
5781.00,0.79
5780.00,0.79
5779.00,0.79
5778.00,0.79
5777.00,0.79
5776.00,0.79
5775.00,0.79
5774.00,0.79
5773.00,0.79
5772.00,0.79
5771.00,0.79
5770.00,0.79
5769.00,0.79
5768.00,0.79
5767.00,0.79
5766.00,0.79
5765.00,0.79
5764.00,0.79
5763.00,0.79
5762.00,0.80
5761.00,0.80
5760.00,0.80
5759.00,0.80
5758.00,0.80
5757.00,0.80
5756.00,0.80
5755.00,0.81
5754.00,0.81
5753.00,0.81
5752.00,0.81
5751.00,0.81
5750.00,0.82
5749.00,0.82
5748.00,0.82
5747.00,0.82
5746.00,0.83
5745.00,0.83
5744.00,0.83
5743.00,0.83
5742.00,0.83
5741.00,0.84
5740.00,0.84
5739.00,0.84
5738.00,0.84
5737.00,0.84
5736.00,0.84
5735.00,0.85
5734.00,0.85
5733.00,0.85
5732.00,0.85
5731.00,0.85
5730.00,0.85
5729.00,0.85
5728.00,0.85
5727.00,0.85
5726.00,0.85
5725.00,0.85
5724.00,0.85
5723.00,0.85
5722.00,0.85
5721.00,0.86
5720.00,0.86
5719.00,0.86
5718.00,0.86
5717.00,0.86
5716.00,0.86
5715.00,0.86
5714.00,0.86
5713.00,0.86
5712.00,0.86
5711.00,0.86
5710.00,0.86
5709.00,0.86
5708.00,0.86
5707.00,0.86
5706.00,0.86
5705.00,0.86
5704.00,0.86
5703.00,0.85
5702.00,0.85
5701.00,0.85
5700.00,0.85
5699.00,0.85
5698.00,0.85
5697.00,0.85
5696.00,0.85
5695.00,0.85
5694.00,0.85
5693.00,0.85
5692.00,0.85
5691.00,0.85
5690.00,0.84
5689.00,0.84
5688.00,0.84
5687.00,0.84
5686.00,0.84
5685.00,0.84
5684.00,0.84
5683.00,0.84
5682.00,0.84
5681.00,0.84
5680.00,0.84
5679.00,0.84
5678.00,0.83
5677.00,0.83
5676.00,0.83
5675.00,0.83
5674.00,0.83
5673.00,0.83
5672.00,0.83
5671.00,0.83
5670.00,0.83
5669.00,0.83
5668.00,0.83
5667.00,0.84
5666.00,0.84
5665.00,0.84
5664.00,0.84
5663.00,0.84
5662.00,0.84
5661.00,0.84
5660.00,0.84
5659.00,0.84
5658.00,0.84
5657.00,0.84
5656.00,0.85
5655.00,0.85
5654.00,0.85
5653.00,0.85
5652.00,0.85
5651.00,0.85
5650.00,0.85
5649.00,0.85
5648.00,0.85
5647.00,0.86
5646.00,0.86
5645.00,0.86
5644.00,0.86
5643.00,0.86
5642.00,0.86
5641.00,0.86
5640.00,0.86
5639.00,0.87
5638.00,0.87
5637.00,0.87
5636.00,0.87
5635.00,0.87
5634.00,0.87
5633.00,0.87
5632.00,0.87
5631.00,0.87
5630.00,0.88
5629.00,0.88
5628.00,0.88
5627.00,0.88
5626.00,0.88
5625.00,0.88
5624.00,0.88
5623.00,0.88
5622.00,0.88
5621.00,0.88
5620.00,0.88
5619.00,0.88
5618.00,0.89
5617.00,0.89
5616.00,0.89
5615.00,0.89
5614.00,0.89
5613.00,0.89
5612.00,0.89
5611.00,0.89
5610.00,0.89
5609.00,0.89
5608.00,0.89
5607.00,0.90
5606.00,0.90
5605.00,0.90
5604.00,0.90
5603.00,0.90
5602.00,0.90
5601.00,0.90
5600.00,0.90
5599.00,0.90
5598.00,0.90
5597.00,0.90
5596.00,0.91
5595.00,0.91
5594.00,0.91
5593.00,0.91
5592.00,0.91
5591.00,0.91
5590.00,0.91
5589.00,0.91
5588.00,0.91
5587.00,0.91
5586.00,0.91
5585.00,0.91
5584.00,0.92
5583.00,0.92
5582.00,0.92
5581.00,0.92
5580.00,0.92
5579.00,0.92
5578.00,0.92
5577.00,0.92
5576.00,0.92
5575.00,0.92
5574.00,0.92
5573.00,0.92
5572.00,0.92
5571.00,0.92
5570.00,0.92
5569.00,0.93
5568.00,0.93
5567.00,0.93
5566.00,0.93
5565.00,0.93
5564.00,0.93
5563.00,0.93
5562.00,0.93
5561.00,0.93
5560.00,0.93
5559.00,0.93
5558.00,0.93
5557.00,0.93
5556.00,0.93
5555.00,0.93
5554.00,0.94
5553.00,0.94
5552.00,0.94
5551.00,0.94
5550.00,0.94
5549.00,0.94
5548.00,0.94
5547.00,0.94
5546.00,0.94
5545.00,0.94
5544.00,0.94
5543.00,0.94
5542.00,0.94
5541.00,0.94
5540.00,0.94
5539.00,0.94
5538.00,0.94
5537.00,0.94
5536.00,0.94
5535.00,0.94
5534.00,0.95
5533.00,0.95
5532.00,0.95
5531.00,0.95
5530.00,0.95
5529.00,0.95
5528.00,0.95
5527.00,0.95
5526.00,0.95
5525.00,0.95
5524.00,0.95
5523.00,0.95
5522.00,0.95
5521.00,0.95
5520.00,0.95
5519.00,0.95
5518.00,0.95
5517.00,0.95
5516.00,0.95
5515.00,0.95
5514.00,0.95
5513.00,0.96
5512.00,0.96
5511.00,0.96
5510.00,0.96
5509.00,0.96
5508.00,0.96
5507.00,0.96
5506.00,0.96
5505.00,0.96
5504.00,0.96
5503.00,0.96
5502.00,0.96
5501.00,0.96
5500.00,0.96
5499.00,0.96
5498.00,0.96
5497.00,0.96
5496.00,0.96
5495.00,0.96
5494.00,0.96
5493.00,0.96
5492.00,0.96
5491.00,0.96
5490.00,0.96
5489.00,0.96
5488.00,0.96
5487.00,0.96
5486.00,0.96
5485.00,0.96
5484.00,0.96
5483.00,0.96
5482.00,0.97
5481.00,0.97
5480.00,0.97
5479.00,0.97
5478.00,0.97
5477.00,0.97
5476.00,0.97
5475.00,0.97
5474.00,0.97
5473.00,0.97
5472.00,0.97
5471.00,0.97
5470.00,0.97
5469.00,0.97
5468.00,0.97
5467.00,0.97
5466.00,0.97
5465.00,0.97
5464.00,0.97
5463.00,0.98
5462.00,0.98
5461.00,0.98
5460.00,0.98
5459.00,0.98
5458.00,0.98
5457.00,0.98
5456.00,0.98
5455.00,0.98
5454.00,0.98
5453.00,0.98
5452.00,0.98
5451.00,0.98
5450.00,0.98
5449.00,0.98
5448.00,0.98
5447.00,0.98
5446.00,0.98
5445.00,0.98
5444.00,0.98
5443.00,0.98
5442.00,0.98
5441.00,0.98
5440.00,0.98
5439.00,0.98
5438.00,0.98
5437.00,0.98
5436.00,0.98
5435.00,0.98
5434.00,0.98
5433.00,0.98
5432.00,0.98
5431.00,0.98
5430.00,0.98
5429.00,0.98
5428.00,0.98
5427.00,0.98
5426.00,0.98
5425.00,0.98
5424.00,0.98
5423.00,0.98
5422.00,0.98
5421.00,0.98
5420.00,0.98
5419.00,0.98
5418.00,0.98
5417.00,0.98
5416.00,0.98
5415.00,0.98
5414.00,0.98
5413.00,0.98
5412.00,0.98
5411.00,0.98
5410.00,0.98
5409.00,0.98
5408.00,0.98
5407.00,0.98
5406.00,0.98
5405.00,0.98
5404.00,0.98
5403.00,0.98
5402.00,0.98
5401.00,0.98
5400.00,0.98
5399.00,0.98
5398.00,0.98
5397.00,0.98
5396.00,0.98
5395.00,0.98
5394.00,0.98
5393.00,0.98
5392.00,0.98
5391.00,0.98
5390.00,0.98
5389.00,0.98
5388.00,0.98
5387.00,0.98
5386.00,0.97
5385.00,0.97
5384.00,0.97
5383.00,0.97
5382.00,0.97
5381.00,0.97
5380.00,0.97
5379.00,0.97
5378.00,0.97
5377.00,0.96
5376.00,0.96
5375.00,0.96
5374.00,0.96
5373.00,0.96
5372.00,0.96
5371.00,0.96
5370.00,0.95
5369.00,0.95
5368.00,0.95
5367.00,0.95
5366.00,0.95
5365.00,0.94
5364.00,0.94
5363.00,0.94
5362.00,0.93
5361.00,0.93
5360.00,0.93
5359.00,0.92
5358.00,0.92
5357.00,0.91
5356.00,0.91
5355.00,0.90
5354.00,0.90
5353.00,0.90
5352.00,0.89
5351.00,0.89
5350.00,0.88
5349.00,0.88
5348.00,0.87
5347.00,0.86
5346.00,0.86
5345.00,0.85
5344.00,0.85
5343.00,0.84
5342.00,0.84
5341.00,0.83
5340.00,0.82
5339.00,0.82
5338.00,0.81
5337.00,0.81
5336.00,0.80
5335.00,0.79
5334.00,0.79
5333.00,0.78
5332.00,0.77
5331.00,0.77
5330.00,0.76
5329.00,0.75
5328.00,0.75
5327.00,0.74
5326.00,0.73
5325.00,0.72
5324.00,0.72
5323.00,0.71
5322.00,0.70
5321.00,0.69
5320.00,0.69
5319.00,0.68
5318.00,0.67
5317.00,0.66
5316.00,0.66
5315.00,0.65
5314.00,0.64
5313.00,0.63
5312.00,0.62
5311.00,0.62
5310.00,0.61
5309.00,0.60
5308.00,0.59
5307.00,0.59
5306.00,0.58
5305.00,0.57
5304.00,0.57
5303.00,0.56
5302.00,0.55
5301.00,0.55
5300.00,0.54
5299.00,0.54
5298.00,0.53
5297.00,0.53
5296.00,0.52
5295.00,0.52
5294.00,0.51
5293.00,0.51
5292.00,0.50
5291.00,0.50
5290.00,0.50
5289.00,0.49
5288.00,0.49
5287.00,0.49
5286.00,0.48
5285.00,0.48
5284.00,0.48
5283.00,0.47
5282.00,0.47
5281.00,0.47
5280.00,0.47
5279.00,0.47
5278.00,0.46
5277.00,0.46
5276.00,0.46
5275.00,0.46
5274.00,0.46
5273.00,0.45
5272.00,0.45
5271.00,0.45
5270.00,0.45
5269.00,0.45
5268.00,0.45
5267.00,0.44
5266.00,0.44
5265.00,0.44
5264.00,0.44
5263.00,0.44
5262.00,0.44
5261.00,0.43
5260.00,0.43
5259.00,0.43
5258.00,0.43
5257.00,0.43
5256.00,0.43
5255.00,0.43
5254.00,0.42
5253.00,0.42
5252.00,0.42
5251.00,0.42
5250.00,0.42
5249.00,0.42
5248.00,0.42
5247.00,0.42
5246.00,0.42
5245.00,0.42
5244.00,0.42
5243.00,0.42
5242.00,0.41
5241.00,0.41
5240.00,0.41
5239.00,0.41
5238.00,0.41
5237.00,0.41
5236.00,0.41
5235.00,0.41
5234.00,0.41
5233.00,0.41
5232.00,0.41
5231.00,0.41
5230.00,0.41
5229.00,0.41
5228.00,0.41
5227.00,0.41
5226.00,0.41
5225.00,0.41
5224.00,0.41
5223.00,0.41
5222.00,0.41
5221.00,0.41
5220.00,0.41
5219.00,0.41
5218.00,0.41
5217.00,0.41
5216.00,0.41
5215.00,0.41
5214.00,0.40
5213.00,0.40
5212.00,0.40
5211.00,0.40
5210.00,0.40
5209.00,0.40
5208.00,0.40
5207.00,0.40
5206.00,0.40
5205.00,0.40
5204.00,0.40
5203.00,0.41
5202.00,0.41
5201.00,0.41
5200.00,0.41
5199.00,0.41
5198.00,0.41
5197.00,0.41
5196.00,0.41
5195.00,0.41
5194.00,0.41
5193.00,0.41
5192.00,0.41
5191.00,0.41
5190.00,0.41
5189.00,0.41
5188.00,0.41
5187.00,0.41
5186.00,0.41
5185.00,0.41
5184.00,0.41
5183.00,0.41
5182.00,0.41
5181.00,0.41
5180.00,0.41
5179.00,0.41
5178.00,0.41
5177.00,0.41
5176.00,0.41
5175.00,0.41
5174.00,0.41
5173.00,0.41
5172.00,0.41
5171.00,0.41
5170.00,0.41
5169.00,0.42
5168.00,0.42
5167.00,0.42
5166.00,0.42
5165.00,0.42
5164.00,0.42
5163.00,0.42
5162.00,0.42
5161.00,0.42
5160.00,0.42
5159.00,0.42
5158.00,0.42
5157.00,0.42
5156.00,0.42
5155.00,0.42
5154.00,0.42
5153.00,0.42
5152.00,0.42
5151.00,0.42
5150.00,0.42
5149.00,0.42
5148.00,0.42
5147.00,0.42
5146.00,0.42
5145.00,0.42
5144.00,0.42
5143.00,0.42
5142.00,0.42
5141.00,0.42
5140.00,0.42
5139.00,0.42
5138.00,0.42
5137.00,0.42
5136.00,0.43
5135.00,0.43
5134.00,0.43
5133.00,0.43
5132.00,0.43
5131.00,0.43
5130.00,0.43
5129.00,0.43
5128.00,0.43
5127.00,0.43
5126.00,0.43
5125.00,0.43
5124.00,0.43
5123.00,0.43
5122.00,0.43
5121.00,0.43
5120.00,0.43
5119.00,0.43
5118.00,0.43
5117.00,0.43
5116.00,0.43
5115.00,0.43
5114.00,0.43
5113.00,0.43
5112.00,0.44
5111.00,0.44
5110.00,0.44
5109.00,0.44
5108.00,0.44
5107.00,0.44
5106.00,0.44
5105.00,0.44
5104.00,0.44
5103.00,0.44
5102.00,0.44
5101.00,0.44
5100.00,0.44
5099.00,0.45
5098.00,0.45
5097.00,0.45
5096.00,0.45
5095.00,0.45
5094.00,0.45
5093.00,0.45
5092.00,0.45
5091.00,0.45
5090.00,0.45
5089.00,0.45
5088.00,0.45
5087.00,0.45
5086.00,0.45
5085.00,0.45
5084.00,0.46
5083.00,0.46
5082.00,0.46
5081.00,0.46
5080.00,0.46
5079.00,0.46
5078.00,0.46
5077.00,0.46
5076.00,0.46
5075.00,0.46
5074.00,0.46
5073.00,0.46
5072.00,0.46
5071.00,0.46
5070.00,0.46
5069.00,0.47
5068.00,0.47
5067.00,0.47
5066.00,0.47
5065.00,0.47
5064.00,0.47
5063.00,0.47
5062.00,0.47
5061.00,0.47
5060.00,0.47
5059.00,0.47
5058.00,0.48
5057.00,0.48
5056.00,0.48
5055.00,0.48
5054.00,0.48
5053.00,0.48
5052.00,0.48
5051.00,0.48
5050.00,0.49
5049.00,0.49
5048.00,0.49
5047.00,0.49
5046.00,0.49
5045.00,0.49
5044.00,0.49
5043.00,0.49
5042.00,0.49
5041.00,0.49
5040.00,0.49
5039.00,0.50
5038.00,0.50
5037.00,0.50
5036.00,0.50
5035.00,0.50
5034.00,0.50
5033.00,0.50
5032.00,0.50
5031.00,0.50
5030.00,0.51
5029.00,0.51
5028.00,0.51
5027.00,0.51
5026.00,0.51
5025.00,0.51
5024.00,0.51
5023.00,0.51
5022.00,0.52
5021.00,0.52
5020.00,0.52
5019.00,0.52
5018.00,0.52
5017.00,0.52
5016.00,0.52
5015.00,0.52
5014.00,0.52
5013.00,0.52
5012.00,0.52
5011.00,0.52
5010.00,0.53
5009.00,0.53
5008.00,0.53
5007.00,0.53
5006.00,0.53
5005.00,0.53
5004.00,0.53
5003.00,0.53
5002.00,0.53
5001.00,0.54
5000.00,0.54
4999.00,0.54
4998.00,0.54
4997.00,0.54
4996.00,0.54
4995.00,0.54
4994.00,0.54
4993.00,0.55
4992.00,0.55
4991.00,0.55
4990.00,0.55
4989.00,0.55
4988.00,0.55
4987.00,0.55
4986.00,0.55
4985.00,0.56
4984.00,0.56
4983.00,0.56
4982.00,0.56
4981.00,0.56
4980.00,0.56
4979.00,0.56
4978.00,0.56
4977.00,0.56
4976.00,0.56
4975.00,0.56
4974.00,0.56
4973.00,0.57
4972.00,0.57
4971.00,0.57
4970.00,0.57
4969.00,0.57
4968.00,0.57
4967.00,0.57
4966.00,0.57
4965.00,0.57
4964.00,0.57
4963.00,0.58
4962.00,0.58
4961.00,0.58
4960.00,0.58
4959.00,0.58
4958.00,0.58
4957.00,0.58
4956.00,0.58
4955.00,0.58
4954.00,0.59
4953.00,0.59
4952.00,0.59
4951.00,0.59
4950.00,0.59
4949.00,0.59
4948.00,0.59
4947.00,0.59
4946.00,0.59
4945.00,0.59
4944.00,0.59
4943.00,0.60
4942.00,0.60
4941.00,0.60
4940.00,0.60
4939.00,0.60
4938.00,0.60
4937.00,0.60
4936.00,0.60
4935.00,0.60
4934.00,0.60
4933.00,0.60
4932.00,0.60
4931.00,0.60
4930.00,0.61
4929.00,0.61
4928.00,0.61
4927.00,0.61
4926.00,0.61
4925.00,0.61
4924.00,0.61
4923.00,0.61
4922.00,0.61
4921.00,0.61
4920.00,0.62
4919.00,0.62
4918.00,0.62
4917.00,0.62
4916.00,0.62
4915.00,0.62
4914.00,0.62
4913.00,0.62
4912.00,0.62
4911.00,0.62
4910.00,0.62
4909.00,0.62
4908.00,0.62
4907.00,0.62
4906.00,0.62
4905.00,0.62
4904.00,0.62
4903.00,0.62
4902.00,0.62
4901.00,0.62
4900.00,0.62
4899.00,0.62
4898.00,0.62
4897.00,0.62
4896.00,0.62
4895.00,0.62
4894.00,0.62
4893.00,0.62
4892.00,0.63
4891.00,0.63
4890.00,0.63
4889.00,0.63
4888.00,0.63
4887.00,0.63
4886.00,0.63
4885.00,0.63
4884.00,0.63
4883.00,0.63
4882.00,0.63
4881.00,0.63
4880.00,0.63
4879.00,0.63
4878.00,0.63
4877.00,0.63
4876.00,0.63
4875.00,0.63
4874.00,0.63
4873.00,0.63
4872.00,0.63
4871.00,0.63
4870.00,0.63
4869.00,0.63
4868.00,0.63
4867.00,0.63
4866.00,0.63
4865.00,0.63
4864.00,0.63
4863.00,0.63
4862.00,0.63
4861.00,0.64
4860.00,0.64
4859.00,0.64
4858.00,0.64
4857.00,0.64
4856.00,0.64
4855.00,0.64
4854.00,0.64
4853.00,0.64
4852.00,0.64
4851.00,0.64
4850.00,0.64
4849.00,0.64
4848.00,0.64
4847.00,0.64
4846.00,0.64
4845.00,0.64
4844.00,0.64
4843.00,0.64
4842.00,0.64
4841.00,0.64
4840.00,0.64
4839.00,0.64
4838.00,0.64
4837.00,0.65
4836.00,0.65
4835.00,0.65
4834.00,0.65
4833.00,0.65
4832.00,0.65
4831.00,0.65
4830.00,0.65
4829.00,0.65
4828.00,0.65
4827.00,0.65
4826.00,0.65
4825.00,0.65
4824.00,0.66
4823.00,0.66
4822.00,0.66
4821.00,0.66
4820.00,0.66
4819.00,0.66
4818.00,0.66
4817.00,0.66
4816.00,0.66
4815.00,0.67
4814.00,0.67
4813.00,0.67
4812.00,0.67
4811.00,0.67
4810.00,0.67
4809.00,0.67
4808.00,0.67
4807.00,0.68
4806.00,0.68
4805.00,0.68
4804.00,0.68
4803.00,0.68
4802.00,0.68
4801.00,0.68
4800.00,0.69
4799.00,0.69
4798.00,0.69
4797.00,0.69
4796.00,0.69
4795.00,0.69
4794.00,0.69
4793.00,0.69
4792.00,0.69
4791.00,0.70
4790.00,0.70
4789.00,0.70
4788.00,0.70
4787.00,0.70
4786.00,0.70
4785.00,0.70
4784.00,0.70
4783.00,0.70
4782.00,0.70
4781.00,0.70
4780.00,0.71
4779.00,0.71
4778.00,0.71
4777.00,0.71
4776.00,0.71
4775.00,0.71
4774.00,0.71
4773.00,0.71
4772.00,0.71
4771.00,0.72
4770.00,0.72
4769.00,0.72
4768.00,0.72
4767.00,0.72
4766.00,0.72
4765.00,0.72
4764.00,0.72
4763.00,0.72
4762.00,0.73
4761.00,0.73
4760.00,0.73
4759.00,0.73
4758.00,0.73
4757.00,0.73
4756.00,0.73
4755.00,0.73
4754.00,0.74
4753.00,0.74
4752.00,0.74
4751.00,0.74
4750.00,0.74
4749.00,0.74
4748.00,0.75
4747.00,0.75
4746.00,0.75
4745.00,0.75
4744.00,0.75
4743.00,0.75
4742.00,0.76
4741.00,0.76
4740.00,0.76
4739.00,0.76
4738.00,0.76
4737.00,0.76
4736.00,0.76
4735.00,0.77
4734.00,0.77
4733.00,0.77
4732.00,0.77
4731.00,0.77
4730.00,0.77
4729.00,0.77
4728.00,0.78
4727.00,0.78
4726.00,0.78
4725.00,0.78
4724.00,0.78
4723.00,0.78
4722.00,0.78
4721.00,0.79
4720.00,0.79
4719.00,0.79
4718.00,0.79
4717.00,0.79
4716.00,0.80
4715.00,0.80
4714.00,0.80
4713.00,0.80
4712.00,0.80
4711.00,0.81
4710.00,0.81
4709.00,0.81
4708.00,0.81
4707.00,0.81
4706.00,0.82
4705.00,0.82
4704.00,0.82
4703.00,0.82
4702.00,0.82
4701.00,0.82
4700.00,0.82
4699.00,0.82
4698.00,0.82
4697.00,0.83
4696.00,0.83
4695.00,0.83
4694.00,0.83
4693.00,0.83
4692.00,0.83
4691.00,0.83
4690.00,0.83
4689.00,0.83
4688.00,0.83
4687.00,0.83
4686.00,0.83
4685.00,0.84
4684.00,0.84
4683.00,0.84
4682.00,0.84
4681.00,0.84
4680.00,0.84
4679.00,0.84
4678.00,0.85
4677.00,0.85
4676.00,0.85
4675.00,0.85
4674.00,0.85
4673.00,0.85
4672.00,0.85
4671.00,0.86
4670.00,0.86
4669.00,0.86
4668.00,0.86
4667.00,0.86
4666.00,0.86
4665.00,0.87
4664.00,0.87
4663.00,0.87
4662.00,0.87
4661.00,0.87
4660.00,0.87
4659.00,0.87
4658.00,0.87
4657.00,0.87
4656.00,0.87
4655.00,0.88
4654.00,0.88
4653.00,0.88
4652.00,0.88
4651.00,0.88
4650.00,0.88
4649.00,0.88
4648.00,0.88
4647.00,0.89
4646.00,0.89
4645.00,0.89
4644.00,0.89
4643.00,0.89
4642.00,0.89
4641.00,0.90
4640.00,0.90
4639.00,0.90
4638.00,0.90
4637.00,0.90
4636.00,0.90
4635.00,0.90
4634.00,0.90
4633.00,0.90
4632.00,0.90
4631.00,0.91
4630.00,0.91
4629.00,0.91
4628.00,0.91
4627.00,0.91
4626.00,0.91
4625.00,0.91
4624.00,0.91
4623.00,0.91
4622.00,0.91
4621.00,0.91
4620.00,0.91
4619.00,0.91
4618.00,0.91
4617.00,0.91
4616.00,0.91
4615.00,0.91
4614.00,0.91
4613.00,0.91
4612.00,0.92
4611.00,0.92
4610.00,0.92
4609.00,0.92
4608.00,0.92
4607.00,0.92
4606.00,0.92
4605.00,0.92
4604.00,0.92
4603.00,0.92
4602.00,0.92
4601.00,0.92
4600.00,0.93
4599.00,0.93
4598.00,0.93
4597.00,0.93
4596.00,0.93
4595.00,0.93
4594.00,0.93
4593.00,0.93
4592.00,0.93
4591.00,0.93
4590.00,0.93
4589.00,0.93
4588.00,0.93
4587.00,0.94
4586.00,0.94
4585.00,0.94
4584.00,0.94
4583.00,0.94
4582.00,0.94
4581.00,0.94
4580.00,0.94
4579.00,0.94
4578.00,0.94
4577.00,0.94
4576.00,0.94
4575.00,0.94
4574.00,0.94
4573.00,0.95
4572.00,0.95
4571.00,0.95
4570.00,0.95
4569.00,0.95
4568.00,0.95
4567.00,0.95
4566.00,0.95
4565.00,0.95
4564.00,0.95
4563.00,0.95
4562.00,0.95
4561.00,0.96
4560.00,0.96
4559.00,0.96
4558.00,0.96
4557.00,0.96
4556.00,0.96
4555.00,0.96
4554.00,0.96
4553.00,0.97
4552.00,0.97
4551.00,0.97
4550.00,0.97
4549.00,0.97
4548.00,0.97
4547.00,0.97
4546.00,0.97
4545.00,0.97
4544.00,0.98
4543.00,0.98
4542.00,0.98
4541.00,0.98
4540.00,0.98
4539.00,0.98
4538.00,0.98
4537.00,0.98
4536.00,0.98
4535.00,0.98
4534.00,0.98
4533.00,0.98
4532.00,0.98
4531.00,0.98
4530.00,0.98
4529.00,0.98
4528.00,0.98
4527.00,0.98
4526.00,0.98
4525.00,0.98
4524.00,0.98
4523.00,0.98
4522.00,0.98
4521.00,0.98
4520.00,0.98
4519.00,0.98
4518.00,0.98
4517.00,0.98
4516.00,0.98
4515.00,0.98
4514.00,0.98
4513.00,0.98
4512.00,0.98
4511.00,0.98
4510.00,0.98
4509.00,0.98
4508.00,0.98
4507.00,0.98
4506.00,0.98
4505.00,0.98
4504.00,0.98
4503.00,0.98
4502.00,0.98
4501.00,0.98
4500.00,0.98
4499.00,0.98
4498.00,0.98
4497.00,0.98
4496.00,0.98
4495.00,0.98
4494.00,0.98
4493.00,0.98
4492.00,0.98
4491.00,0.98
4490.00,0.98
4489.00,0.98
4488.00,0.97
4487.00,0.97
4486.00,0.97
4485.00,0.97
4484.00,0.97
4483.00,0.97
4482.00,0.97
4481.00,0.97
4480.00,0.96
4479.00,0.96
4478.00,0.96
4477.00,0.96
4476.00,0.96
4475.00,0.96
4474.00,0.95
4473.00,0.95
4472.00,0.95
4471.00,0.95
4470.00,0.94
4469.00,0.94
4468.00,0.94
4467.00,0.94
4466.00,0.93
4465.00,0.93
4464.00,0.93
4463.00,0.92
4462.00,0.92
4461.00,0.92
4460.00,0.91
4459.00,0.91
4458.00,0.91
4457.00,0.90
4456.00,0.90
4455.00,0.89
4454.00,0.89
4453.00,0.89
4452.00,0.88
4451.00,0.88
4450.00,0.87
4449.00,0.87
4448.00,0.86
4447.00,0.86
4446.00,0.85
4445.00,0.85
4444.00,0.84
4443.00,0.83
4442.00,0.83
4441.00,0.82
4440.00,0.82
4439.00,0.81
4438.00,0.81
4437.00,0.80
4436.00,0.79
4435.00,0.79
4434.00,0.78
4433.00,0.78
4432.00,0.77
4431.00,0.77
4430.00,0.76
4429.00,0.76
4428.00,0.75
4427.00,0.75
4426.00,0.74
4425.00,0.74
4424.00,0.73
4423.00,0.73
4422.00,0.73
4421.00,0.72
4420.00,0.72
4419.00,0.72
4418.00,0.72
4417.00,0.71
4416.00,0.71
4415.00,0.71
4414.00,0.71
4413.00,0.71
4412.00,0.71
4411.00,0.71
4410.00,0.71
4409.00,0.71
4408.00,0.71
4407.00,0.71
4406.00,0.71
4405.00,0.71
4404.00,0.71
4403.00,0.71
4402.00,0.71
4401.00,0.71
4400.00,0.71
4399.00,0.72
4398.00,0.72
4397.00,0.72
4396.00,0.72
4395.00,0.72
4394.00,0.72
4393.00,0.72
4392.00,0.73
4391.00,0.73
4390.00,0.73
4389.00,0.73
4388.00,0.74
4387.00,0.74
4386.00,0.74
4385.00,0.74
4384.00,0.75
4383.00,0.75
4382.00,0.75
4381.00,0.75
4380.00,0.76
4379.00,0.76
4378.00,0.76
4377.00,0.76
4376.00,0.77
4375.00,0.77
4374.00,0.77
4373.00,0.77
4372.00,0.77
4371.00,0.77
4370.00,0.77
4369.00,0.77
4368.00,0.77
4367.00,0.77
4366.00,0.77
4365.00,0.77
4364.00,0.77
4363.00,0.77
4362.00,0.77
4361.00,0.77
4360.00,0.77
4359.00,0.77
4358.00,0.76
4357.00,0.76
4356.00,0.76
4355.00,0.76
4354.00,0.76
4353.00,0.76
4352.00,0.75
4351.00,0.75
4350.00,0.75
4349.00,0.75
4348.00,0.75
4347.00,0.75
4346.00,0.75
4345.00,0.74
4344.00,0.74
4343.00,0.74
4342.00,0.74
4341.00,0.74
4340.00,0.74
4339.00,0.74
4338.00,0.74
4337.00,0.74
4336.00,0.75
4335.00,0.75
4334.00,0.75
4333.00,0.75
4332.00,0.75
4331.00,0.75
4330.00,0.75
4329.00,0.76
4328.00,0.76
4327.00,0.76
4326.00,0.76
4325.00,0.76
4324.00,0.77
4323.00,0.77
4322.00,0.77
4321.00,0.77
4320.00,0.78
4319.00,0.78
4318.00,0.78
4317.00,0.78
4316.00,0.79
4315.00,0.79
4314.00,0.79
4313.00,0.80
4312.00,0.80
4311.00,0.81
4310.00,0.81
4309.00,0.81
4308.00,0.82
4307.00,0.82
4306.00,0.82
4305.00,0.83
4304.00,0.83
4303.00,0.83
4302.00,0.84
4301.00,0.84
4300.00,0.84
4299.00,0.84
4298.00,0.85
4297.00,0.85
4296.00,0.85
4295.00,0.85
4294.00,0.86
4293.00,0.86
4292.00,0.86
4291.00,0.86
4290.00,0.87
4289.00,0.87
4288.00,0.87
4287.00,0.87
4286.00,0.87
4285.00,0.88
4284.00,0.88
4283.00,0.88
4282.00,0.88
4281.00,0.88
4280.00,0.88
4279.00,0.88
4278.00,0.88
4277.00,0.88
4276.00,0.88
4275.00,0.88
4274.00,0.88
4273.00,0.88
4272.00,0.88
4271.00,0.88
4270.00,0.88
4269.00,0.87
4268.00,0.87
4267.00,0.87
4266.00,0.87
4265.00,0.87
4264.00,0.86
4263.00,0.86
4262.00,0.86
4261.00,0.86
4260.00,0.86
4259.00,0.85
4258.00,0.85
4257.00,0.85
4256.00,0.85
4255.00,0.85
4254.00,0.85
4253.00,0.85
4252.00,0.85
4251.00,0.85
4250.00,0.85
4249.00,0.85
4248.00,0.85
4247.00,0.85
4246.00,0.86
4245.00,0.86
4244.00,0.86
4243.00,0.86
4242.00,0.86
4241.00,0.87
4240.00,0.87
4239.00,0.87
4238.00,0.87
4237.00,0.88
4236.00,0.88
4235.00,0.88
4234.00,0.88
4233.00,0.89
4232.00,0.89
4231.00,0.89
4230.00,0.89
4229.00,0.90
4228.00,0.90
4227.00,0.90
4226.00,0.90
4225.00,0.90
4224.00,0.91
4223.00,0.91
4222.00,0.91
4221.00,0.91
4220.00,0.91
4219.00,0.91
4218.00,0.91
4217.00,0.91
4216.00,0.91
4215.00,0.91
4214.00,0.92
4213.00,0.92
4212.00,0.92
4211.00,0.92
4210.00,0.92
4209.00,0.92
4208.00,0.92
4207.00,0.92
4206.00,0.92
4205.00,0.92
4204.00,0.92
4203.00,0.92
4202.00,0.92
4201.00,0.93
4200.00,0.93
4199.00,0.93
4198.00,0.93
4197.00,0.93
4196.00,0.93
4195.00,0.93
4194.00,0.93
4193.00,0.93
4192.00,0.93
4191.00,0.93
4190.00,0.93
4189.00,0.93
4188.00,0.93
4187.00,0.93
4186.00,0.93
4185.00,0.93
4184.00,0.93
4183.00,0.93
4182.00,0.93
4181.00,0.93
4180.00,0.93
4179.00,0.93
4178.00,0.93
4177.00,0.93
4176.00,0.93
4175.00,0.93
4174.00,0.93
4173.00,0.92
4172.00,0.92
4171.00,0.92
4170.00,0.92
4169.00,0.92
4168.00,0.92
4167.00,0.92
4166.00,0.92
4165.00,0.92
4164.00,0.92
4163.00,0.92
4162.00,0.92
4161.00,0.92
4160.00,0.92
4159.00,0.92
4158.00,0.92
4157.00,0.92
4156.00,0.92
4155.00,0.92
4154.00,0.92
4153.00,0.92
4152.00,0.92
4151.00,0.92
4150.00,0.92
4149.00,0.92
4148.00,0.92
4147.00,0.92
4146.00,0.92
4145.00,0.92
4144.00,0.92
4143.00,0.92
4142.00,0.92
4141.00,0.92
4140.00,0.92
4139.00,0.92
4138.00,0.92
4137.00,0.92
4136.00,0.93
4135.00,0.93
4134.00,0.93
4133.00,0.93
4132.00,0.93
4131.00,0.93
4130.00,0.93
4129.00,0.93
4128.00,0.93
4127.00,0.93
4126.00,0.93
4125.00,0.93
4124.00,0.93
4123.00,0.93
4122.00,0.93
4121.00,0.93
4120.00,0.93
4119.00,0.93
4118.00,0.93
4117.00,0.93
4116.00,0.93
4115.00,0.92
4114.00,0.92
4113.00,0.92
4112.00,0.92
4111.00,0.92
4110.00,0.92
4109.00,0.92
4108.00,0.93
4107.00,0.93
4106.00,0.93
4105.00,0.93
4104.00,0.93
4103.00,0.93
4102.00,0.93
4101.00,0.93
4100.00,0.93
4099.00,0.93
4098.00,0.93
4097.00,0.93
4096.00,0.93
4095.00,0.93
4094.00,0.93
4093.00,0.93
4092.00,0.93
4091.00,0.93
4090.00,0.93
4089.00,0.93
4088.00,0.93
4087.00,0.93
4086.00,0.93
4085.00,0.93
4084.00,0.93
4083.00,0.93
4082.00,0.93
4081.00,0.93
4080.00,0.93
4079.00,0.93
4078.00,0.93
4077.00,0.93
4076.00,0.93
4075.00,0.94
4074.00,0.94
4073.00,0.94
4072.00,0.94
4071.00,0.94
4070.00,0.94
4069.00,0.94
4068.00,0.94
4067.00,0.94
4066.00,0.94
4065.00,0.94
4064.00,0.94
4063.00,0.94
4062.00,0.94
4061.00,0.94
4060.00,0.94
4059.00,0.94
4058.00,0.95
4057.00,0.95
4056.00,0.95
4055.00,0.95
4054.00,0.95
4053.00,0.95
4052.00,0.95
4051.00,0.95
4050.00,0.95
4049.00,0.95
4048.00,0.95
4047.00,0.95
4046.00,0.95
4045.00,0.95
4044.00,0.95
4043.00,0.95
4042.00,0.95
4041.00,0.95
4040.00,0.95
4039.00,0.95
4038.00,0.95
4037.00,0.95
4036.00,0.95
4035.00,0.95
4034.00,0.95
4033.00,0.95
4032.00,0.95
4031.00,0.95
4030.00,0.96
4029.00,0.96
4028.00,0.96
4027.00,0.96
4026.00,0.96
4025.00,0.96
4024.00,0.96
4023.00,0.96
4022.00,0.96
4021.00,0.96
4020.00,0.96
4019.00,0.96
4018.00,0.96
4017.00,0.96
4016.00,0.96
4015.00,0.97
4014.00,0.97
4013.00,0.97
4012.00,0.97
4011.00,0.97
4010.00,0.97
4009.00,0.97
4008.00,0.97
4007.00,0.97
4006.00,0.97
4005.00,0.98
4004.00,0.98
4003.00,0.98
4002.00,0.98
4001.00,0.98
4000.00,0.98
