创建为新数据集,样品 336 用户 Administrator 日期 星期日, 七月 22 2018
cm-1,%T
10000.00,0.95
9999.00,0.95
9998.00,0.94
9997.00,0.94
9996.00,0.94
9995.00,0.94
9994.00,0.94
9993.00,0.94
9992.00,0.93
9991.00,0.93
9990.00,0.93
9989.00,0.93
9988.00,0.93
9987.00,0.93
9986.00,0.93
9985.00,0.93
9984.00,0.93
9983.00,0.93
9982.00,0.93
9981.00,0.93
9980.00,0.93
9979.00,0.93
9978.00,0.94
9977.00,0.94
9976.00,0.94
9975.00,0.94
9974.00,0.94
9973.00,0.94
9972.00,0.94
9971.00,0.95
9970.00,0.95
9969.00,0.95
9968.00,0.95
9967.00,0.95
9966.00,0.95
9965.00,0.94
9964.00,0.94
9963.00,0.94
9962.00,0.94
9961.00,0.94
9960.00,0.93
9959.00,0.93
9958.00,0.93
9957.00,0.92
9956.00,0.92
9955.00,0.91
9954.00,0.91
9953.00,0.90
9952.00,0.90
9951.00,0.89
9950.00,0.89
9949.00,0.89
9948.00,0.88
9947.00,0.88
9946.00,0.88
9945.00,0.87
9944.00,0.87
9943.00,0.87
9942.00,0.87
9941.00,0.87
9940.00,0.87
9939.00,0.87
9938.00,0.87
9937.00,0.87
9936.00,0.87
9935.00,0.88
9934.00,0.88
9933.00,0.88
9932.00,0.88
9931.00,0.88
9930.00,0.88
9929.00,0.88
9928.00,0.88
9927.00,0.88
9926.00,0.88
9925.00,0.88
9924.00,0.88
9923.00,0.88
9922.00,0.88
9921.00,0.88
9920.00,0.88
9919.00,0.87
9918.00,0.87
9917.00,0.87
9916.00,0.87
9915.00,0.87
9914.00,0.87
9913.00,0.87
9912.00,0.88
9911.00,0.88
9910.00,0.88
9909.00,0.88
9908.00,0.89
9907.00,0.89
9906.00,0.89
9905.00,0.90
9904.00,0.90
9903.00,0.90
9902.00,0.91
9901.00,0.91
9900.00,0.92
9899.00,0.92
9898.00,0.92
9897.00,0.92
9896.00,0.93
9895.00,0.93
9894.00,0.93
9893.00,0.93
9892.00,0.94
9891.00,0.94
9890.00,0.94
9889.00,0.94
9888.00,0.94
9887.00,0.94
9886.00,0.94
9885.00,0.94
9884.00,0.95
9883.00,0.95
9882.00,0.95
9881.00,0.95
9880.00,0.94
9879.00,0.94
9878.00,0.94
9877.00,0.94
9876.00,0.94
9875.00,0.94
9874.00,0.93
9873.00,0.93
9872.00,0.93
9871.00,0.92
9870.00,0.92
9869.00,0.92
9868.00,0.91
9867.00,0.91
9866.00,0.91
9865.00,0.90
9864.00,0.90
9863.00,0.90
9862.00,0.90
9861.00,0.90
9860.00,0.89
9859.00,0.89
9858.00,0.89
9857.00,0.89
9856.00,0.89
9855.00,0.89
9854.00,0.89
9853.00,0.89
9852.00,0.90
9851.00,0.90
9850.00,0.90
9849.00,0.90
9848.00,0.90
9847.00,0.90
9846.00,0.90
9845.00,0.90
9844.00,0.90
9843.00,0.90
9842.00,0.90
9841.00,0.91
9840.00,0.91
9839.00,0.91
9838.00,0.91
9837.00,0.91
9836.00,0.91
9835.00,0.91
9834.00,0.91
9833.00,0.91
9832.00,0.91
9831.00,0.91
9830.00,0.91
9829.00,0.90
9828.00,0.90
9827.00,0.90
9826.00,0.90
9825.00,0.90
9824.00,0.90
9823.00,0.90
9822.00,0.89
9821.00,0.89
9820.00,0.89
9819.00,0.89
9818.00,0.89
9817.00,0.89
9816.00,0.89
9815.00,0.89
9814.00,0.89
9813.00,0.89
9812.00,0.89
9811.00,0.90
9810.00,0.90
9809.00,0.90
9808.00,0.90
9807.00,0.90
9806.00,0.90
9805.00,0.90
9804.00,0.90
9803.00,0.90
9802.00,0.90
9801.00,0.91
9800.00,0.91
9799.00,0.91
9798.00,0.91
9797.00,0.91
9796.00,0.92
9795.00,0.92
9794.00,0.92
9793.00,0.92
9792.00,0.93
9791.00,0.93
9790.00,0.93
9789.00,0.93
9788.00,0.93
9787.00,0.93
9786.00,0.93
9785.00,0.93
9784.00,0.93
9783.00,0.93
9782.00,0.92
9781.00,0.92
9780.00,0.92
9779.00,0.91
9778.00,0.91
9777.00,0.91
9776.00,0.90
9775.00,0.90
9774.00,0.90
9773.00,0.89
9772.00,0.89
9771.00,0.89
9770.00,0.89
9769.00,0.89
9768.00,0.89
9767.00,0.89
9766.00,0.89
9765.00,0.89
9764.00,0.89
9763.00,0.89
9762.00,0.89
9761.00,0.90
9760.00,0.90
9759.00,0.90
9758.00,0.90
9757.00,0.90
9756.00,0.90
9755.00,0.90
9754.00,0.90
9753.00,0.89
9752.00,0.89
9751.00,0.89
9750.00,0.89
9749.00,0.89
9748.00,0.88
9747.00,0.88
9746.00,0.88
9745.00,0.88
9744.00,0.88
9743.00,0.87
9742.00,0.87
9741.00,0.87
9740.00,0.87
9739.00,0.87
9738.00,0.87
9737.00,0.87
9736.00,0.87
9735.00,0.87
9734.00,0.88
9733.00,0.88
9732.00,0.88
9731.00,0.88
9730.00,0.89
9729.00,0.89
9728.00,0.89
9727.00,0.90
9726.00,0.90
9725.00,0.90
9724.00,0.90
9723.00,0.91
9722.00,0.91
9721.00,0.91
9720.00,0.91
9719.00,0.91
9718.00,0.91
9717.00,0.91
9716.00,0.91
9715.00,0.91
9714.00,0.91
9713.00,0.91
9712.00,0.91
9711.00,0.91
9710.00,0.91
9709.00,0.91
9708.00,0.90
9707.00,0.90
9706.00,0.90
9705.00,0.90
9704.00,0.90
9703.00,0.90
9702.00,0.90
9701.00,0.90
9700.00,0.90
9699.00,0.90
9698.00,0.91
9697.00,0.91
9696.00,0.91
9695.00,0.91
9694.00,0.91
9693.00,0.91
9692.00,0.91
9691.00,0.91
9690.00,0.91
9689.00,0.91
9688.00,0.91
9687.00,0.91
9686.00,0.91
9685.00,0.91
9684.00,0.91
9683.00,0.92
9682.00,0.92
9681.00,0.92
9680.00,0.92
9679.00,0.92
9678.00,0.92
9677.00,0.92
9676.00,0.92
9675.00,0.92
9674.00,0.92
9673.00,0.92
9672.00,0.92
9671.00,0.92
9670.00,0.91
9669.00,0.91
9668.00,0.91
9667.00,0.91
9666.00,0.91
9665.00,0.91
9664.00,0.91
9663.00,0.91
9662.00,0.91
9661.00,0.91
9660.00,0.91
9659.00,0.91
9658.00,0.91
9657.00,0.91
9656.00,0.91
9655.00,0.91
9654.00,0.91
9653.00,0.91
9652.00,0.91
9651.00,0.92
9650.00,0.92
9649.00,0.92
9648.00,0.92
9647.00,0.92
9646.00,0.91
9645.00,0.91
9644.00,0.91
9643.00,0.91
9642.00,0.91
9641.00,0.91
9640.00,0.91
9639.00,0.91
9638.00,0.91
9637.00,0.91
9636.00,0.91
9635.00,0.91
9634.00,0.91
9633.00,0.91
9632.00,0.91
9631.00,0.91
9630.00,0.91
9629.00,0.91
9628.00,0.91
9627.00,0.91
9626.00,0.92
9625.00,0.92
9624.00,0.92
9623.00,0.92
9622.00,0.92
9621.00,0.92
9620.00,0.92
9619.00,0.92
9618.00,0.92
9617.00,0.92
9616.00,0.92
9615.00,0.92
9614.00,0.92
9613.00,0.92
9612.00,0.92
9611.00,0.93
9610.00,0.93
9609.00,0.93
9608.00,0.93
9607.00,0.93
9606.00,0.93
9605.00,0.93
9604.00,0.93
9603.00,0.93
9602.00,0.93
9601.00,0.93
9600.00,0.93
9599.00,0.93
9598.00,0.93
9597.00,0.93
9596.00,0.93
9595.00,0.93
9594.00,0.93
9593.00,0.93
9592.00,0.93
9591.00,0.92
9590.00,0.92
9589.00,0.92
9588.00,0.92
9587.00,0.92
9586.00,0.92
9585.00,0.92
9584.00,0.91
9583.00,0.91
9582.00,0.91
9581.00,0.91
9580.00,0.91
9579.00,0.91
9578.00,0.91
9577.00,0.91
9576.00,0.91
9575.00,0.91
9574.00,0.91
9573.00,0.91
9572.00,0.91
9571.00,0.91
9570.00,0.91
9569.00,0.91
9568.00,0.91
9567.00,0.91
9566.00,0.91
9565.00,0.91
9564.00,0.91
9563.00,0.91
9562.00,0.92
9561.00,0.92
9560.00,0.92
9559.00,0.92
9558.00,0.92
9557.00,0.92
9556.00,0.92
9555.00,0.92
9554.00,0.92
9553.00,0.92
9552.00,0.92
9551.00,0.92
9550.00,0.92
9549.00,0.92
9548.00,0.92
9547.00,0.92
9546.00,0.92
9545.00,0.92
9544.00,0.92
9543.00,0.92
9542.00,0.92
9541.00,0.92
9540.00,0.92
9539.00,0.92
9538.00,0.92
9537.00,0.92
9536.00,0.92
9535.00,0.91
9534.00,0.91
9533.00,0.91
9532.00,0.91
9531.00,0.91
9530.00,0.91
9529.00,0.90
9528.00,0.90
9527.00,0.90
9526.00,0.90
9525.00,0.90
9524.00,0.90
9523.00,0.90
9522.00,0.89
9521.00,0.90
9520.00,0.90
9519.00,0.90
9518.00,0.90
9517.00,0.90
9516.00,0.90
9515.00,0.90
9514.00,0.91
9513.00,0.91
9512.00,0.91
9511.00,0.91
9510.00,0.91
9509.00,0.91
9508.00,0.92
9507.00,0.92
9506.00,0.92
9505.00,0.92
9504.00,0.92
9503.00,0.92
9502.00,0.92
9501.00,0.92
9500.00,0.92
9499.00,0.91
9498.00,0.91
9497.00,0.91
9496.00,0.91
9495.00,0.91
9494.00,0.91
9493.00,0.91
9492.00,0.91
9491.00,0.91
9490.00,0.91
9489.00,0.91
9488.00,0.91
9487.00,0.91
9486.00,0.91
9485.00,0.91
9484.00,0.91
9483.00,0.91
9482.00,0.91
9481.00,0.91
9480.00,0.92
9479.00,0.92
9478.00,0.92
9477.00,0.92
9476.00,0.92
9475.00,0.92
9474.00,0.92
9473.00,0.92
9472.00,0.92
9471.00,0.92
9470.00,0.92
9469.00,0.92
9468.00,0.92
9467.00,0.92
9466.00,0.92
9465.00,0.92
9464.00,0.92
9463.00,0.92
9462.00,0.92
9461.00,0.92
9460.00,0.92
9459.00,0.92
9458.00,0.92
9457.00,0.92
9456.00,0.92
9455.00,0.93
9454.00,0.93
9453.00,0.93
9452.00,0.93
9451.00,0.93
9450.00,0.93
9449.00,0.93
9448.00,0.93
9447.00,0.93
9446.00,0.93
9445.00,0.93
9444.00,0.93
9443.00,0.93
9442.00,0.93
9441.00,0.93
9440.00,0.93
9439.00,0.93
9438.00,0.93
9437.00,0.93
9436.00,0.94
9435.00,0.94
9434.00,0.94
9433.00,0.94
9432.00,0.94
9431.00,0.94
9430.00,0.94
9429.00,0.94
9428.00,0.94
9427.00,0.94
9426.00,0.94
9425.00,0.94
9424.00,0.94
9423.00,0.94
9422.00,0.94
9421.00,0.94
9420.00,0.94
9419.00,0.94
9418.00,0.93
9417.00,0.93
9416.00,0.93
9415.00,0.93
9414.00,0.93
9413.00,0.93
9412.00,0.92
9411.00,0.92
9410.00,0.92
9409.00,0.92
9408.00,0.92
9407.00,0.92
9406.00,0.91
9405.00,0.91
9404.00,0.91
9403.00,0.91
9402.00,0.91
9401.00,0.91
9400.00,0.91
9399.00,0.91
9398.00,0.91
9397.00,0.91
9396.00,0.91
9395.00,0.92
9394.00,0.92
9393.00,0.92
9392.00,0.92
9391.00,0.93
9390.00,0.93
9389.00,0.93
9388.00,0.93
9387.00,0.94
9386.00,0.94
9385.00,0.94
9384.00,0.94
9383.00,0.94
9382.00,0.94
9381.00,0.93
9380.00,0.93
9379.00,0.93
9378.00,0.93
9377.00,0.93
9376.00,0.93
9375.00,0.93
9374.00,0.92
9373.00,0.92
9372.00,0.92
9371.00,0.92
9370.00,0.92
9369.00,0.92
9368.00,0.92
9367.00,0.92
9366.00,0.92
9365.00,0.92
9364.00,0.92
9363.00,0.92
9362.00,0.92
9361.00,0.92
9360.00,0.93
9359.00,0.93
9358.00,0.93
9357.00,0.93
9356.00,0.93
9355.00,0.93
9354.00,0.93
9353.00,0.93
9352.00,0.93
9351.00,0.93
9350.00,0.92
9349.00,0.92
9348.00,0.92
9347.00,0.92
9346.00,0.91
9345.00,0.91
9344.00,0.91
9343.00,0.91
9342.00,0.90
9341.00,0.90
9340.00,0.90
9339.00,0.90
9338.00,0.90
9337.00,0.90
9336.00,0.90
9335.00,0.90
9334.00,0.90
9333.00,0.90
9332.00,0.90
9331.00,0.91
9330.00,0.91
9329.00,0.91
9328.00,0.91
9327.00,0.92
9326.00,0.92
9325.00,0.92
9324.00,0.93
9323.00,0.93
9322.00,0.93
9321.00,0.93
9320.00,0.93
9319.00,0.94
9318.00,0.94
9317.00,0.94
9316.00,0.94
9315.00,0.94
9314.00,0.94
9313.00,0.94
9312.00,0.94
9311.00,0.93
9310.00,0.93
9309.00,0.93
9308.00,0.93
9307.00,0.93
9306.00,0.93
9305.00,0.93
9304.00,0.93
9303.00,0.93
9302.00,0.93
9301.00,0.93
9300.00,0.93
9299.00,0.93
9298.00,0.93
9297.00,0.93
9296.00,0.93
9295.00,0.93
9294.00,0.93
9293.00,0.93
9292.00,0.93
9291.00,0.93
9290.00,0.93
9289.00,0.93
9288.00,0.92
9287.00,0.92
9286.00,0.92
9285.00,0.92
9284.00,0.92
9283.00,0.92
9282.00,0.92
9281.00,0.92
9280.00,0.92
9279.00,0.91
9278.00,0.91
9277.00,0.91
9276.00,0.91
9275.00,0.91
9274.00,0.91
9273.00,0.91
9272.00,0.91
9271.00,0.91
9270.00,0.91
9269.00,0.91
9268.00,0.91
9267.00,0.91
9266.00,0.91
9265.00,0.91
9264.00,0.91
9263.00,0.91
9262.00,0.91
9261.00,0.91
9260.00,0.91
9259.00,0.91
9258.00,0.91
9257.00,0.91
9256.00,0.91
9255.00,0.91
9254.00,0.91
9253.00,0.91
9252.00,0.91
9251.00,0.91
9250.00,0.91
9249.00,0.90
9248.00,0.90
9247.00,0.90
9246.00,0.90
9245.00,0.90
9244.00,0.90
9243.00,0.91
9242.00,0.91
9241.00,0.91
9240.00,0.91
9239.00,0.91
9238.00,0.91
9237.00,0.91
9236.00,0.91
9235.00,0.92
9234.00,0.92
9233.00,0.92
9232.00,0.92
9231.00,0.92
9230.00,0.93
9229.00,0.93
9228.00,0.93
9227.00,0.93
9226.00,0.93
9225.00,0.93
9224.00,0.93
9223.00,0.93
9222.00,0.93
9221.00,0.93
9220.00,0.93
9219.00,0.92
9218.00,0.92
9217.00,0.92
9216.00,0.92
9215.00,0.91
9214.00,0.91
9213.00,0.91
9212.00,0.91
9211.00,0.90
9210.00,0.90
9209.00,0.90
9208.00,0.90
9207.00,0.89
9206.00,0.89
9205.00,0.89
9204.00,0.89
9203.00,0.89
9202.00,0.89
9201.00,0.89
9200.00,0.89
9199.00,0.89
9198.00,0.89
9197.00,0.89
9196.00,0.89
9195.00,0.90
9194.00,0.90
9193.00,0.90
9192.00,0.90
9191.00,0.90
9190.00,0.91
9189.00,0.91
9188.00,0.91
9187.00,0.91
9186.00,0.91
9185.00,0.92
9184.00,0.92
9183.00,0.92
9182.00,0.92
9181.00,0.92
9180.00,0.92
9179.00,0.92
9178.00,0.92
9177.00,0.92
9176.00,0.91
9175.00,0.91
9174.00,0.91
9173.00,0.91
9172.00,0.91
9171.00,0.91
9170.00,0.91
9169.00,0.91
9168.00,0.90
9167.00,0.90
9166.00,0.91
9165.00,0.91
9164.00,0.91
9163.00,0.91
9162.00,0.91
9161.00,0.91
9160.00,0.92
9159.00,0.92
9158.00,0.92
9157.00,0.92
9156.00,0.93
9155.00,0.93
9154.00,0.93
9153.00,0.93
9152.00,0.94
9151.00,0.94
9150.00,0.94
9149.00,0.94
9148.00,0.94
9147.00,0.94
9146.00,0.94
9145.00,0.95
9144.00,0.95
9143.00,0.95
9142.00,0.95
9141.00,0.94
9140.00,0.94
9139.00,0.94
9138.00,0.94
9137.00,0.94
9136.00,0.94
9135.00,0.94
9134.00,0.94
9133.00,0.94
9132.00,0.94
9131.00,0.93
9130.00,0.93
9129.00,0.93
9128.00,0.93
9127.00,0.93
9126.00,0.93
9125.00,0.93
9124.00,0.93
9123.00,0.93
9122.00,0.93
9121.00,0.93
9120.00,0.93
9119.00,0.93
9118.00,0.93
9117.00,0.93
9116.00,0.93
9115.00,0.93
9114.00,0.93
9113.00,0.93
9112.00,0.93
9111.00,0.93
9110.00,0.93
9109.00,0.93
9108.00,0.93
9107.00,0.94
9106.00,0.94
9105.00,0.94
9104.00,0.94
9103.00,0.94
9102.00,0.94
9101.00,0.93
9100.00,0.93
9099.00,0.93
9098.00,0.93
9097.00,0.93
9096.00,0.92
9095.00,0.92
9094.00,0.92
9093.00,0.92
9092.00,0.91
9091.00,0.91
9090.00,0.91
9089.00,0.91
9088.00,0.90
9087.00,0.90
9086.00,0.90
9085.00,0.90
9084.00,0.90
9083.00,0.90
9082.00,0.90
9081.00,0.90
9080.00,0.90
9079.00,0.90
9078.00,0.91
9077.00,0.91
9076.00,0.91
9075.00,0.91
9074.00,0.91
9073.00,0.92
9072.00,0.92
9071.00,0.92
9070.00,0.92
9069.00,0.92
9068.00,0.92
9067.00,0.92
9066.00,0.92
9065.00,0.92
9064.00,0.92
9063.00,0.92
9062.00,0.92
9061.00,0.92
9060.00,0.92
9059.00,0.91
9058.00,0.91
9057.00,0.91
9056.00,0.91
9055.00,0.91
9054.00,0.91
9053.00,0.91
9052.00,0.91
9051.00,0.91
9050.00,0.91
9049.00,0.91
9048.00,0.91
9047.00,0.91
9046.00,0.91
9045.00,0.91
9044.00,0.91
9043.00,0.92
9042.00,0.92
9041.00,0.92
9040.00,0.92
9039.00,0.92
9038.00,0.92
9037.00,0.92
9036.00,0.92
9035.00,0.92
9034.00,0.92
9033.00,0.92
9032.00,0.92
9031.00,0.92
9030.00,0.92
9029.00,0.92
9028.00,0.92
9027.00,0.92
9026.00,0.92
9025.00,0.92
9024.00,0.92
9023.00,0.92
9022.00,0.92
9021.00,0.92
9020.00,0.92
9019.00,0.92
9018.00,0.92
9017.00,0.92
9016.00,0.92
9015.00,0.93
9014.00,0.93
9013.00,0.93
9012.00,0.93
9011.00,0.93
9010.00,0.93
9009.00,0.93
9008.00,0.93
9007.00,0.93
9006.00,0.93
9005.00,0.93
9004.00,0.93
9003.00,0.93
9002.00,0.93
9001.00,0.93
9000.00,0.92
8999.00,0.92
8998.00,0.92
8997.00,0.92
8996.00,0.92
8995.00,0.92
8994.00,0.91
8993.00,0.91
8992.00,0.91
8991.00,0.91
8990.00,0.91
8989.00,0.91
8988.00,0.91
8987.00,0.90
8986.00,0.90
8985.00,0.90
8984.00,0.90
8983.00,0.90
8982.00,0.90
8981.00,0.90
8980.00,0.90
8979.00,0.91
8978.00,0.91
8977.00,0.91
8976.00,0.91
8975.00,0.91
8974.00,0.91
8973.00,0.91
8972.00,0.91
8971.00,0.91
8970.00,0.91
8969.00,0.91
8968.00,0.91
8967.00,0.91
8966.00,0.91
8965.00,0.92
8964.00,0.92
8963.00,0.92
8962.00,0.92
8961.00,0.92
8960.00,0.92
8959.00,0.92
8958.00,0.92
8957.00,0.92
8956.00,0.92
8955.00,0.92
8954.00,0.92
8953.00,0.92
8952.00,0.92
8951.00,0.93
8950.00,0.93
8949.00,0.93
8948.00,0.93
8947.00,0.93
8946.00,0.93
8945.00,0.93
8944.00,0.93
8943.00,0.93
8942.00,0.93
8941.00,0.93
8940.00,0.93
8939.00,0.93
8938.00,0.93
8937.00,0.93
8936.00,0.93
8935.00,0.93
8934.00,0.93
8933.00,0.93
8932.00,0.92
8931.00,0.92
8930.00,0.92
8929.00,0.92
8928.00,0.92
8927.00,0.92
8926.00,0.92
8925.00,0.92
8924.00,0.92
8923.00,0.92
8922.00,0.92
8921.00,0.92
8920.00,0.92
8919.00,0.92
8918.00,0.92
8917.00,0.92
8916.00,0.92
8915.00,0.92
8914.00,0.92
8913.00,0.92
8912.00,0.92
8911.00,0.92
8910.00,0.91
8909.00,0.91
8908.00,0.91
8907.00,0.91
8906.00,0.91
8905.00,0.91
8904.00,0.91
8903.00,0.91
8902.00,0.91
8901.00,0.91
8900.00,0.91
8899.00,0.91
8898.00,0.91
8897.00,0.91
8896.00,0.91
8895.00,0.91
8894.00,0.91
8893.00,0.91
8892.00,0.92
8891.00,0.92
8890.00,0.92
8889.00,0.92
8888.00,0.92
8887.00,0.93
8886.00,0.93
8885.00,0.93
8884.00,0.93
8883.00,0.93
8882.00,0.93
8881.00,0.93
8880.00,0.93
8879.00,0.93
8878.00,0.93
8877.00,0.93
8876.00,0.93
8875.00,0.93
8874.00,0.93
8873.00,0.93
8872.00,0.93
8871.00,0.93
8870.00,0.93
8869.00,0.92
8868.00,0.92
8867.00,0.92
8866.00,0.92
8865.00,0.92
8864.00,0.92
8863.00,0.92
8862.00,0.92
8861.00,0.92
8860.00,0.92
8859.00,0.92
8858.00,0.92
8857.00,0.92
8856.00,0.92
8855.00,0.92
8854.00,0.92
8853.00,0.92
8852.00,0.92
8851.00,0.92
8850.00,0.92
8849.00,0.92
8848.00,0.92
8847.00,0.92
8846.00,0.92
8845.00,0.92
8844.00,0.92
8843.00,0.92
8842.00,0.92
8841.00,0.92
8840.00,0.92
8839.00,0.92
8838.00,0.92
8837.00,0.92
8836.00,0.92
8835.00,0.92
8834.00,0.92
8833.00,0.92
8832.00,0.92
8831.00,0.92
8830.00,0.92
8829.00,0.92
8828.00,0.92
8827.00,0.92
8826.00,0.92
8825.00,0.92
8824.00,0.92
8823.00,0.92
8822.00,0.92
8821.00,0.92
8820.00,0.92
8819.00,0.92
8818.00,0.92
8817.00,0.92
8816.00,0.92
8815.00,0.92
8814.00,0.92
8813.00,0.92
8812.00,0.92
8811.00,0.92
8810.00,0.92
8809.00,0.92
8808.00,0.91
8807.00,0.91
8806.00,0.91
8805.00,0.91
8804.00,0.91
8803.00,0.91
8802.00,0.90
8801.00,0.90
8800.00,0.90
8799.00,0.90
8798.00,0.90
8797.00,0.90
8796.00,0.90
8795.00,0.90
8794.00,0.90
8793.00,0.90
8792.00,0.90
8791.00,0.90
8790.00,0.90
8789.00,0.90
8788.00,0.90
8787.00,0.91
8786.00,0.91
8785.00,0.91
8784.00,0.91
8783.00,0.91
8782.00,0.91
8781.00,0.92
8780.00,0.92
8779.00,0.92
8778.00,0.92
8777.00,0.92
8776.00,0.92
8775.00,0.92
8774.00,0.92
8773.00,0.92
8772.00,0.92
8771.00,0.92
8770.00,0.92
8769.00,0.92
8768.00,0.92
8767.00,0.92
8766.00,0.92
8765.00,0.91
8764.00,0.91
8763.00,0.91
8762.00,0.91
8761.00,0.91
8760.00,0.91
8759.00,0.91
8758.00,0.91
8757.00,0.91
8756.00,0.91
8755.00,0.91
8754.00,0.91
8753.00,0.91
8752.00,0.91
8751.00,0.91
8750.00,0.91
8749.00,0.90
8748.00,0.90
8747.00,0.90
8746.00,0.90
8745.00,0.90
8744.00,0.89
8743.00,0.89
8742.00,0.89
8741.00,0.89
8740.00,0.89
8739.00,0.89
8738.00,0.88
8737.00,0.88
8736.00,0.88
8735.00,0.88
8734.00,0.88
8733.00,0.88
8732.00,0.88
8731.00,0.88
8730.00,0.88
8729.00,0.88
8728.00,0.88
8727.00,0.88
8726.00,0.88
8725.00,0.88
8724.00,0.88
8723.00,0.89
8722.00,0.89
8721.00,0.89
8720.00,0.89
8719.00,0.89
8718.00,0.89
8717.00,0.89
8716.00,0.89
8715.00,0.89
8714.00,0.90
8713.00,0.90
8712.00,0.90
8711.00,0.90
8710.00,0.90
8709.00,0.90
8708.00,0.90
8707.00,0.90
8706.00,0.90
8705.00,0.90
8704.00,0.90
8703.00,0.90
8702.00,0.90
8701.00,0.90
8700.00,0.90
8699.00,0.90
8698.00,0.90
8697.00,0.90
8696.00,0.90
8695.00,0.90
8694.00,0.90
8693.00,0.90
8692.00,0.90
8691.00,0.90
8690.00,0.90
8689.00,0.90
8688.00,0.90
8687.00,0.90
8686.00,0.90
8685.00,0.90
8684.00,0.90
8683.00,0.90
8682.00,0.90
8681.00,0.90
8680.00,0.90
8679.00,0.90
8678.00,0.90
8677.00,0.90
8676.00,0.90
8675.00,0.90
8674.00,0.89
8673.00,0.89
8672.00,0.89
8671.00,0.90
8670.00,0.90
8669.00,0.90
8668.00,0.90
8667.00,0.90
8666.00,0.90
8665.00,0.90
8664.00,0.90
8663.00,0.91
8662.00,0.91
8661.00,0.91
8660.00,0.91
8659.00,0.91
8658.00,0.91
8657.00,0.92
8656.00,0.92
8655.00,0.92
8654.00,0.92
8653.00,0.92
8652.00,0.92
8651.00,0.92
8650.00,0.92
8649.00,0.92
8648.00,0.92
8647.00,0.92
8646.00,0.92
8645.00,0.92
8644.00,0.92
8643.00,0.92
8642.00,0.92
8641.00,0.91
8640.00,0.91
8639.00,0.91
8638.00,0.91
8637.00,0.91
8636.00,0.91
8635.00,0.91
8634.00,0.91
8633.00,0.91
8632.00,0.91
8631.00,0.91
8630.00,0.91
8629.00,0.91
8628.00,0.91
8627.00,0.91
8626.00,0.91
8625.00,0.91
8624.00,0.91
8623.00,0.91
8622.00,0.91
8621.00,0.91
8620.00,0.91
8619.00,0.91
8618.00,0.91
8617.00,0.91
8616.00,0.91
8615.00,0.91
8614.00,0.91
8613.00,0.91
8612.00,0.91
8611.00,0.91
8610.00,0.91
8609.00,0.91
8608.00,0.91
8607.00,0.91
8606.00,0.91
8605.00,0.91
8604.00,0.91
8603.00,0.91
8602.00,0.90
8601.00,0.90
8600.00,0.90
8599.00,0.90
8598.00,0.90
8597.00,0.90
8596.00,0.89
8595.00,0.89
8594.00,0.89
8593.00,0.89
8592.00,0.89
8591.00,0.89
8590.00,0.88
8589.00,0.88
8588.00,0.88
8587.00,0.88
8586.00,0.88
8585.00,0.88
8584.00,0.88
8583.00,0.88
8582.00,0.88
8581.00,0.88
8580.00,0.88
8579.00,0.88
8578.00,0.88
8577.00,0.88
8576.00,0.88
8575.00,0.88
8574.00,0.88
8573.00,0.88
8572.00,0.88
8571.00,0.88
8570.00,0.88
8569.00,0.88
8568.00,0.88
8567.00,0.88
8566.00,0.88
8565.00,0.88
8564.00,0.88
8563.00,0.88
8562.00,0.88
8561.00,0.88
8560.00,0.87
8559.00,0.87
8558.00,0.87
8557.00,0.87
8556.00,0.87
8555.00,0.87
8554.00,0.87
8553.00,0.87
8552.00,0.87
8551.00,0.87
8550.00,0.87
8549.00,0.87
8548.00,0.87
8547.00,0.87
8546.00,0.87
8545.00,0.87
8544.00,0.87
8543.00,0.87
8542.00,0.87
8541.00,0.87
8540.00,0.87
8539.00,0.87
8538.00,0.87
8537.00,0.87
8536.00,0.87
8535.00,0.87
8534.00,0.87
8533.00,0.87
8532.00,0.87
8531.00,0.87
8530.00,0.87
8529.00,0.87
8528.00,0.87
8527.00,0.87
8526.00,0.87
8525.00,0.87
8524.00,0.87
8523.00,0.87
8522.00,0.87
8521.00,0.88
8520.00,0.88
8519.00,0.88
8518.00,0.88
8517.00,0.88
8516.00,0.88
8515.00,0.88
8514.00,0.88
8513.00,0.88
8512.00,0.88
8511.00,0.88
8510.00,0.88
8509.00,0.88
8508.00,0.87
8507.00,0.87
8506.00,0.87
8505.00,0.87
8504.00,0.87
8503.00,0.87
8502.00,0.87
8501.00,0.87
8500.00,0.87
8499.00,0.87
8498.00,0.87
8497.00,0.87
8496.00,0.87
8495.00,0.87
8494.00,0.87
8493.00,0.87
8492.00,0.87
8491.00,0.87
8490.00,0.86
8489.00,0.86
8488.00,0.86
8487.00,0.86
8486.00,0.86
8485.00,0.86
8484.00,0.86
8483.00,0.86
8482.00,0.86
8481.00,0.85
8480.00,0.85
8479.00,0.85
8478.00,0.85
8477.00,0.85
8476.00,0.85
8475.00,0.85
8474.00,0.84
8473.00,0.84
8472.00,0.84
8471.00,0.84
8470.00,0.84
8469.00,0.84
8468.00,0.84
8467.00,0.84
8466.00,0.84
8465.00,0.84
8464.00,0.84
8463.00,0.84
8462.00,0.84
8461.00,0.84
8460.00,0.84
8459.00,0.84
8458.00,0.85
8457.00,0.85
8456.00,0.85
8455.00,0.85
8454.00,0.85
8453.00,0.85
8452.00,0.85
8451.00,0.86
8450.00,0.86
8449.00,0.86
8448.00,0.86
8447.00,0.86
8446.00,0.86
8445.00,0.86
8444.00,0.86
8443.00,0.86
8442.00,0.86
8441.00,0.86
8440.00,0.86
8439.00,0.86
8438.00,0.86
8437.00,0.86
8436.00,0.86
8435.00,0.86
8434.00,0.86
8433.00,0.86
8432.00,0.86
8431.00,0.86
8430.00,0.86
8429.00,0.86
8428.00,0.86
8427.00,0.86
8426.00,0.86
8425.00,0.86
8424.00,0.86
8423.00,0.86
8422.00,0.86
8421.00,0.85
8420.00,0.85
8419.00,0.85
8418.00,0.85
8417.00,0.85
8416.00,0.85
8415.00,0.85
8414.00,0.85
8413.00,0.85
8412.00,0.85
8411.00,0.85
8410.00,0.85
8409.00,0.85
8408.00,0.85
8407.00,0.85
8406.00,0.85
8405.00,0.85
8404.00,0.85
8403.00,0.85
8402.00,0.85
8401.00,0.85
8400.00,0.85
8399.00,0.86
8398.00,0.86
8397.00,0.86
8396.00,0.86
8395.00,0.86
8394.00,0.86
8393.00,0.86
8392.00,0.87
8391.00,0.87
8390.00,0.87
8389.00,0.87
8388.00,0.87
8387.00,0.87
8386.00,0.87
8385.00,0.87
8384.00,0.88
8383.00,0.88
8382.00,0.88
8381.00,0.88
8380.00,0.88
8379.00,0.88
8378.00,0.88
8377.00,0.88
8376.00,0.88
8375.00,0.88
8374.00,0.88
8373.00,0.88
8372.00,0.88
8371.00,0.88
8370.00,0.88
8369.00,0.88
8368.00,0.88
8367.00,0.88
8366.00,0.88
8365.00,0.88
8364.00,0.88
8363.00,0.88
8362.00,0.88
8361.00,0.88
8360.00,0.88
8359.00,0.87
8358.00,0.87
8357.00,0.87
8356.00,0.87
8355.00,0.87
8354.00,0.87
8353.00,0.87
8352.00,0.87
8351.00,0.87
8350.00,0.87
8349.00,0.87
8348.00,0.87
8347.00,0.88
8346.00,0.88
8345.00,0.88
8344.00,0.88
8343.00,0.88
8342.00,0.88
8341.00,0.88
8340.00,0.88
8339.00,0.88
8338.00,0.88
8337.00,0.88
8336.00,0.88
8335.00,0.88
8334.00,0.88
8333.00,0.88
8332.00,0.88
8331.00,0.88
8330.00,0.88
8329.00,0.88
8328.00,0.88
8327.00,0.88
8326.00,0.88
8325.00,0.88
8324.00,0.88
8323.00,0.88
8322.00,0.88
8321.00,0.88
8320.00,0.88
8319.00,0.88
8318.00,0.87
8317.00,0.87
8316.00,0.87
8315.00,0.87
8314.00,0.87
8313.00,0.87
8312.00,0.87
8311.00,0.87
8310.00,0.87
8309.00,0.87
8308.00,0.87
8307.00,0.87
8306.00,0.87
8305.00,0.87
8304.00,0.87
8303.00,0.87
8302.00,0.87
8301.00,0.87
8300.00,0.87
8299.00,0.87
8298.00,0.87
8297.00,0.87
8296.00,0.87
8295.00,0.87
8294.00,0.87
8293.00,0.87
8292.00,0.87
8291.00,0.87
8290.00,0.87
8289.00,0.87
8288.00,0.88
8287.00,0.88
8286.00,0.88
8285.00,0.88
8284.00,0.88
8283.00,0.88
8282.00,0.88
8281.00,0.88
8280.00,0.88
8279.00,0.89
8278.00,0.89
8277.00,0.89
8276.00,0.89
8275.00,0.89
8274.00,0.89
8273.00,0.89
8272.00,0.89
8271.00,0.89
8270.00,0.89
8269.00,0.89
8268.00,0.89
8267.00,0.89
8266.00,0.89
8265.00,0.89
8264.00,0.89
8263.00,0.89
8262.00,0.89
8261.00,0.88
8260.00,0.88
8259.00,0.88
8258.00,0.88
8257.00,0.88
8256.00,0.88
8255.00,0.88
8254.00,0.88
8253.00,0.88
8252.00,0.88
8251.00,0.88
8250.00,0.88
8249.00,0.88
8248.00,0.89
8247.00,0.89
8246.00,0.89
8245.00,0.89
8244.00,0.89
8243.00,0.89
8242.00,0.89
8241.00,0.89
8240.00,0.89
8239.00,0.89
8238.00,0.89
8237.00,0.89
8236.00,0.89
8235.00,0.89
8234.00,0.89
8233.00,0.89
8232.00,0.88
8231.00,0.88
8230.00,0.88
8229.00,0.88
8228.00,0.88
8227.00,0.88
8226.00,0.88
8225.00,0.88
8224.00,0.88
8223.00,0.88
8222.00,0.88
8221.00,0.88
8220.00,0.88
8219.00,0.88
8218.00,0.88
8217.00,0.88
8216.00,0.89
8215.00,0.89
8214.00,0.89
8213.00,0.89
8212.00,0.89
8211.00,0.90
8210.00,0.90
8209.00,0.90
8208.00,0.90
8207.00,0.90
8206.00,0.90
8205.00,0.91
8204.00,0.91
8203.00,0.91
8202.00,0.91
8201.00,0.91
8200.00,0.91
8199.00,0.91
8198.00,0.90
8197.00,0.90
8196.00,0.90
8195.00,0.90
8194.00,0.90
8193.00,0.90
8192.00,0.90
8191.00,0.90
8190.00,0.90
8189.00,0.90
8188.00,0.90
8187.00,0.90
8186.00,0.90
8185.00,0.90
8184.00,0.90
8183.00,0.90
8182.00,0.90
8181.00,0.90
8180.00,0.90
8179.00,0.90
8178.00,0.90
8177.00,0.90
8176.00,0.90
8175.00,0.90
8174.00,0.90
8173.00,0.90
8172.00,0.90
8171.00,0.90
8170.00,0.90
8169.00,0.90
8168.00,0.90
8167.00,0.90
8166.00,0.90
8165.00,0.90
8164.00,0.90
8163.00,0.90
8162.00,0.90
8161.00,0.90
8160.00,0.90
8159.00,0.90
8158.00,0.90
8157.00,0.90
8156.00,0.90
8155.00,0.90
8154.00,0.90
8153.00,0.90
8152.00,0.90
8151.00,0.90
8150.00,0.90
8149.00,0.90
8148.00,0.90
8147.00,0.90
8146.00,0.90
8145.00,0.90
8144.00,0.90
8143.00,0.90
8142.00,0.90
8141.00,0.90
8140.00,0.90
8139.00,0.90
8138.00,0.90
8137.00,0.90
8136.00,0.90
8135.00,0.90
8134.00,0.90
8133.00,0.90
8132.00,0.90
8131.00,0.90
8130.00,0.90
8129.00,0.90
8128.00,0.90
8127.00,0.90
8126.00,0.90
8125.00,0.90
8124.00,0.90
8123.00,0.90
8122.00,0.90
8121.00,0.90
8120.00,0.90
8119.00,0.90
8118.00,0.90
8117.00,0.90
8116.00,0.90
8115.00,0.90
8114.00,0.90
8113.00,0.90
8112.00,0.90
8111.00,0.90
8110.00,0.91
8109.00,0.91
8108.00,0.91
8107.00,0.91
8106.00,0.91
8105.00,0.91
8104.00,0.91
8103.00,0.91
8102.00,0.91
8101.00,0.91
8100.00,0.91
8099.00,0.91
8098.00,0.91
8097.00,0.92
8096.00,0.92
8095.00,0.92
8094.00,0.92
8093.00,0.92
8092.00,0.92
8091.00,0.92
8090.00,0.92
8089.00,0.91
8088.00,0.91
8087.00,0.91
8086.00,0.91
8085.00,0.91
8084.00,0.91
8083.00,0.91
8082.00,0.91
8081.00,0.91
8080.00,0.91
8079.00,0.91
8078.00,0.91
8077.00,0.91
8076.00,0.91
8075.00,0.91
8074.00,0.90
8073.00,0.91
8072.00,0.91
8071.00,0.91
8070.00,0.91
8069.00,0.91
8068.00,0.91
8067.00,0.91
8066.00,0.91
8065.00,0.91
8064.00,0.91
8063.00,0.92
8062.00,0.92
8061.00,0.92
8060.00,0.92
8059.00,0.92
8058.00,0.92
8057.00,0.92
8056.00,0.92
8055.00,0.92
8054.00,0.92
8053.00,0.92
8052.00,0.92
8051.00,0.92
8050.00,0.92
8049.00,0.92
8048.00,0.91
8047.00,0.91
8046.00,0.91
8045.00,0.91
8044.00,0.91
8043.00,0.91
8042.00,0.91
8041.00,0.91
8040.00,0.91
8039.00,0.91
8038.00,0.91
8037.00,0.91
8036.00,0.91
8035.00,0.91
8034.00,0.91
8033.00,0.91
8032.00,0.91
8031.00,0.91
8030.00,0.91
8029.00,0.91
8028.00,0.91
8027.00,0.91
8026.00,0.91
8025.00,0.91
8024.00,0.91
8023.00,0.91
8022.00,0.91
8021.00,0.91
8020.00,0.91
8019.00,0.91
8018.00,0.91
8017.00,0.91
8016.00,0.91
8015.00,0.91
8014.00,0.91
8013.00,0.91
8012.00,0.92
8011.00,0.92
8010.00,0.92
8009.00,0.92
8008.00,0.92
8007.00,0.92
8006.00,0.92
8005.00,0.92
8004.00,0.92
8003.00,0.92
8002.00,0.92
8001.00,0.92
8000.00,0.93
7999.00,0.93
7998.00,0.93
7997.00,0.93
7996.00,0.93
7995.00,0.93
7994.00,0.93
7993.00,0.93
7992.00,0.93
7991.00,0.93
7990.00,0.92
7989.00,0.92
7988.00,0.92
7987.00,0.92
7986.00,0.92
7985.00,0.92
7984.00,0.92
7983.00,0.92
7982.00,0.92
7981.00,0.92
7980.00,0.92
7979.00,0.92
7978.00,0.92
7977.00,0.92
7976.00,0.92
7975.00,0.92
7974.00,0.92
7973.00,0.92
7972.00,0.93
7971.00,0.93
7970.00,0.93
7969.00,0.93
7968.00,0.93
7967.00,0.93
7966.00,0.93
7965.00,0.93
7964.00,0.93
7963.00,0.93
7962.00,0.93
7961.00,0.93
7960.00,0.93
7959.00,0.93
7958.00,0.93
7957.00,0.93
7956.00,0.93
7955.00,0.92
7954.00,0.92
7953.00,0.92
7952.00,0.92
7951.00,0.92
7950.00,0.92
7949.00,0.92
7948.00,0.93
7947.00,0.93
7946.00,0.93
7945.00,0.93
7944.00,0.93
7943.00,0.93
7942.00,0.93
7941.00,0.93
7940.00,0.93
7939.00,0.93
7938.00,0.93
7937.00,0.93
7936.00,0.93
7935.00,0.93
7934.00,0.93
7933.00,0.93
7932.00,0.93
7931.00,0.93
7930.00,0.93
7929.00,0.93
7928.00,0.93
7927.00,0.93
7926.00,0.93
7925.00,0.93
7924.00,0.93
7923.00,0.93
7922.00,0.93
7921.00,0.93
7920.00,0.93
7919.00,0.92
7918.00,0.92
7917.00,0.92
7916.00,0.92
7915.00,0.92
7914.00,0.92
7913.00,0.92
7912.00,0.92
7911.00,0.92
7910.00,0.92
7909.00,0.92
7908.00,0.92
7907.00,0.92
7906.00,0.92
7905.00,0.92
7904.00,0.92
7903.00,0.92
7902.00,0.92
7901.00,0.92
7900.00,0.92
7899.00,0.92
7898.00,0.92
7897.00,0.92
7896.00,0.92
7895.00,0.92
7894.00,0.92
7893.00,0.92
7892.00,0.92
7891.00,0.92
7890.00,0.92
7889.00,0.92
7888.00,0.92
7887.00,0.92
7886.00,0.93
7885.00,0.93
7884.00,0.93
7883.00,0.93
7882.00,0.93
7881.00,0.93
7880.00,0.93
7879.00,0.93
7878.00,0.93
7877.00,0.93
7876.00,0.93
7875.00,0.93
7874.00,0.93
7873.00,0.93
7872.00,0.93
7871.00,0.93
7870.00,0.94
7869.00,0.94
7868.00,0.94
7867.00,0.94
7866.00,0.94
7865.00,0.94
7864.00,0.94
7863.00,0.94
7862.00,0.94
7861.00,0.94
7860.00,0.94
7859.00,0.94
7858.00,0.94
7857.00,0.94
7856.00,0.94
7855.00,0.94
7854.00,0.94
7853.00,0.94
7852.00,0.94
7851.00,0.94
7850.00,0.93
7849.00,0.93
7848.00,0.93
7847.00,0.93
7846.00,0.93
7845.00,0.93
7844.00,0.93
7843.00,0.93
7842.00,0.93
7841.00,0.93
7840.00,0.93
7839.00,0.93
7838.00,0.93
7837.00,0.93
7836.00,0.93
7835.00,0.93
7834.00,0.93
7833.00,0.93
7832.00,0.93
7831.00,0.93
7830.00,0.94
7829.00,0.94
7828.00,0.94
7827.00,0.94
7826.00,0.94
7825.00,0.94
7824.00,0.94
7823.00,0.94
7822.00,0.94
7821.00,0.94
7820.00,0.95
7819.00,0.95
7818.00,0.95
7817.00,0.95
7816.00,0.95
7815.00,0.94
7814.00,0.94
7813.00,0.94
7812.00,0.94
7811.00,0.94
7810.00,0.94
7809.00,0.94
7808.00,0.94
7807.00,0.94
7806.00,0.94
7805.00,0.94
7804.00,0.94
7803.00,0.94
7802.00,0.94
7801.00,0.94
7800.00,0.94
7799.00,0.94
7798.00,0.94
7797.00,0.94
7796.00,0.94
7795.00,0.94
7794.00,0.94
7793.00,0.94
7792.00,0.94
7791.00,0.94
7790.00,0.94
7789.00,0.94
7788.00,0.94
7787.00,0.94
7786.00,0.94
7785.00,0.94
7784.00,0.94
7783.00,0.94
7782.00,0.94
7781.00,0.94
7780.00,0.94
7779.00,0.94
7778.00,0.94
7777.00,0.94
7776.00,0.94
7775.00,0.94
7774.00,0.94
7773.00,0.94
7772.00,0.94
7771.00,0.94
7770.00,0.94
7769.00,0.94
7768.00,0.93
7767.00,0.93
7766.00,0.93
7765.00,0.93
7764.00,0.93
7763.00,0.93
7762.00,0.93
7761.00,0.93
7760.00,0.93
7759.00,0.93
7758.00,0.93
7757.00,0.93
7756.00,0.93
7755.00,0.93
7754.00,0.93
7753.00,0.93
7752.00,0.93
7751.00,0.93
7750.00,0.93
7749.00,0.93
7748.00,0.93
7747.00,0.93
7746.00,0.93
7745.00,0.93
7744.00,0.93
7743.00,0.93
7742.00,0.93
7741.00,0.93
7740.00,0.93
7739.00,0.93
7738.00,0.93
7737.00,0.93
7736.00,0.93
7735.00,0.93
7734.00,0.93
7733.00,0.93
7732.00,0.93
7731.00,0.93
7730.00,0.93
7729.00,0.93
7728.00,0.93
7727.00,0.93
7726.00,0.93
7725.00,0.93
7724.00,0.93
7723.00,0.93
7722.00,0.94
7721.00,0.94
7720.00,0.94
7719.00,0.94
7718.00,0.94
7717.00,0.94
7716.00,0.94
7715.00,0.94
7714.00,0.94
7713.00,0.94
7712.00,0.94
7711.00,0.94
7710.00,0.94
7709.00,0.95
7708.00,0.95
7707.00,0.95
7706.00,0.95
7705.00,0.95
7704.00,0.95
7703.00,0.95
7702.00,0.95
7701.00,0.95
7700.00,0.95
7699.00,0.95
7698.00,0.95
7697.00,0.95
7696.00,0.95
7695.00,0.95
7694.00,0.95
7693.00,0.95
7692.00,0.94
7691.00,0.94
7690.00,0.94
7689.00,0.94
7688.00,0.94
7687.00,0.94
7686.00,0.94
7685.00,0.94
7684.00,0.94
7683.00,0.94
7682.00,0.94
7681.00,0.94
7680.00,0.94
7679.00,0.94
7678.00,0.93
7677.00,0.93
7676.00,0.93
7675.00,0.93
7674.00,0.93
7673.00,0.93
7672.00,0.93
7671.00,0.93
7670.00,0.93
7669.00,0.94
7668.00,0.94
7667.00,0.94
7666.00,0.94
7665.00,0.94
7664.00,0.94
7663.00,0.94
7662.00,0.94
7661.00,0.94
7660.00,0.94
7659.00,0.94
7658.00,0.94
7657.00,0.94
7656.00,0.95
7655.00,0.95
7654.00,0.95
7653.00,0.95
7652.00,0.95
7651.00,0.95
7650.00,0.95
7649.00,0.95
7648.00,0.95
7647.00,0.94
7646.00,0.94
7645.00,0.94
7644.00,0.94
7643.00,0.94
7642.00,0.94
7641.00,0.94
7640.00,0.94
7639.00,0.94
7638.00,0.94
7637.00,0.94
7636.00,0.94
7635.00,0.94
7634.00,0.94
7633.00,0.94
7632.00,0.94
7631.00,0.94
7630.00,0.94
7629.00,0.94
7628.00,0.94
7627.00,0.94
7626.00,0.94
7625.00,0.94
7624.00,0.94
7623.00,0.94
7622.00,0.94
7621.00,0.95
7620.00,0.95
7619.00,0.95
7618.00,0.95
7617.00,0.95
7616.00,0.95
7615.00,0.95
7614.00,0.95
7613.00,0.95
7612.00,0.95
7611.00,0.94
7610.00,0.94
7609.00,0.94
7608.00,0.94
7607.00,0.94
7606.00,0.94
7605.00,0.94
7604.00,0.94
7603.00,0.94
7602.00,0.94
7601.00,0.94
7600.00,0.94
7599.00,0.94
7598.00,0.94
7597.00,0.94
7596.00,0.93
7595.00,0.93
7594.00,0.93
7593.00,0.93
7592.00,0.93
7591.00,0.93
7590.00,0.93
7589.00,0.93
7588.00,0.93
7587.00,0.93
7586.00,0.93
7585.00,0.93
7584.00,0.93
7583.00,0.93
7582.00,0.93
7581.00,0.93
7580.00,0.93
7579.00,0.94
7578.00,0.94
7577.00,0.94
7576.00,0.94
7575.00,0.94
7574.00,0.94
7573.00,0.94
7572.00,0.94
7571.00,0.94
7570.00,0.94
7569.00,0.94
7568.00,0.94
7567.00,0.94
7566.00,0.94
7565.00,0.94
7564.00,0.94
7563.00,0.94
7562.00,0.94
7561.00,0.94
7560.00,0.94
7559.00,0.94
7558.00,0.94
7557.00,0.94
7556.00,0.94
7555.00,0.94
7554.00,0.94
7553.00,0.94
7552.00,0.94
7551.00,0.94
7550.00,0.94
7549.00,0.94
7548.00,0.94
7547.00,0.94
7546.00,0.94
7545.00,0.94
7544.00,0.94
7543.00,0.94
7542.00,0.94
7541.00,0.94
7540.00,0.94
7539.00,0.94
7538.00,0.94
7537.00,0.94
7536.00,0.94
7535.00,0.94
7534.00,0.94
7533.00,0.94
7532.00,0.93
7531.00,0.93
7530.00,0.93
7529.00,0.93
7528.00,0.93
7527.00,0.93
7526.00,0.93
7525.00,0.94
7524.00,0.94
7523.00,0.94
7522.00,0.94
7521.00,0.94
7520.00,0.94
7519.00,0.94
7518.00,0.94
7517.00,0.94
7516.00,0.94
7515.00,0.94
7514.00,0.94
7513.00,0.94
7512.00,0.94
7511.00,0.94
7510.00,0.94
7509.00,0.93
7508.00,0.93
7507.00,0.93
7506.00,0.93
7505.00,0.93
7504.00,0.93
7503.00,0.93
7502.00,0.93
7501.00,0.93
7500.00,0.93
7499.00,0.93
7498.00,0.93
7497.00,0.93
7496.00,0.93
7495.00,0.93
7494.00,0.93
7493.00,0.93
7492.00,0.93
7491.00,0.93
7490.00,0.93
7489.00,0.93
7488.00,0.93
7487.00,0.93
7486.00,0.93
7485.00,0.93
7484.00,0.93
7483.00,0.93
7482.00,0.93
7481.00,0.93
7480.00,0.93
7479.00,0.93
7478.00,0.93
7477.00,0.93
7476.00,0.93
7475.00,0.93
7474.00,0.93
7473.00,0.93
7472.00,0.93
7471.00,0.93
7470.00,0.93
7469.00,0.93
7468.00,0.93
7467.00,0.92
7466.00,0.92
7465.00,0.92
7464.00,0.92
7463.00,0.92
7462.00,0.92
7461.00,0.92
7460.00,0.92
7459.00,0.92
7458.00,0.92
7457.00,0.92
7456.00,0.92
7455.00,0.92
7454.00,0.92
7453.00,0.92
7452.00,0.92
7451.00,0.92
7450.00,0.92
7449.00,0.92
7448.00,0.92
7447.00,0.92
7446.00,0.92
7445.00,0.92
7444.00,0.92
7443.00,0.92
7442.00,0.93
7441.00,0.93
7440.00,0.93
7439.00,0.93
7438.00,0.93
7437.00,0.93
7436.00,0.93
7435.00,0.93
7434.00,0.93
7433.00,0.93
7432.00,0.92
7431.00,0.92
7430.00,0.92
7429.00,0.92
7428.00,0.92
7427.00,0.92
7426.00,0.92
7425.00,0.92
7424.00,0.92
7423.00,0.92
7422.00,0.92
7421.00,0.92
7420.00,0.92
7419.00,0.91
7418.00,0.91
7417.00,0.91
7416.00,0.91
7415.00,0.91
7414.00,0.91
7413.00,0.91
7412.00,0.91
7411.00,0.91
7410.00,0.91
7409.00,0.91
7408.00,0.91
7407.00,0.90
7406.00,0.90
7405.00,0.90
7404.00,0.90
7403.00,0.90
7402.00,0.90
7401.00,0.90
7400.00,0.90
7399.00,0.90
7398.00,0.90
7397.00,0.90
7396.00,0.90
7395.00,0.90
7394.00,0.90
7393.00,0.90
7392.00,0.90
7391.00,0.89
7390.00,0.89
7389.00,0.89
7388.00,0.89
7387.00,0.89
7386.00,0.89
7385.00,0.89
7384.00,0.89
7383.00,0.89
7382.00,0.88
7381.00,0.88
7380.00,0.88
7379.00,0.88
7378.00,0.88
7377.00,0.88
7376.00,0.88
7375.00,0.88
7374.00,0.88
7373.00,0.88
7372.00,0.88
7371.00,0.88
7370.00,0.89
7369.00,0.89
7368.00,0.89
7367.00,0.89
7366.00,0.89
7365.00,0.89
7364.00,0.89
7363.00,0.89
7362.00,0.89
7361.00,0.89
7360.00,0.89
7359.00,0.89
7358.00,0.89
7357.00,0.89
7356.00,0.89
7355.00,0.89
7354.00,0.89
7353.00,0.89
7352.00,0.89
7351.00,0.89
7350.00,0.89
7349.00,0.89
7348.00,0.89
7347.00,0.89
7346.00,0.89
7345.00,0.88
7344.00,0.88
7343.00,0.88
7342.00,0.88
7341.00,0.88
7340.00,0.88
7339.00,0.88
7338.00,0.88
7337.00,0.88
7336.00,0.88
7335.00,0.88
7334.00,0.88
7333.00,0.88
7332.00,0.88
7331.00,0.88
7330.00,0.88
7329.00,0.88
7328.00,0.88
7327.00,0.88
7326.00,0.88
7325.00,0.88
7324.00,0.88
7323.00,0.88
7322.00,0.88
7321.00,0.88
7320.00,0.88
7319.00,0.88
7318.00,0.87
7317.00,0.87
7316.00,0.87
7315.00,0.87
7314.00,0.87
7313.00,0.87
7312.00,0.87
7311.00,0.87
7310.00,0.87
7309.00,0.87
7308.00,0.87
7307.00,0.87
7306.00,0.87
7305.00,0.87
7304.00,0.87
7303.00,0.87
7302.00,0.87
7301.00,0.87
7300.00,0.87
7299.00,0.87
7298.00,0.87
7297.00,0.87
7296.00,0.87
7295.00,0.87
7294.00,0.87
7293.00,0.87
7292.00,0.87
7291.00,0.87
7290.00,0.87
7289.00,0.87
7288.00,0.87
7287.00,0.87
7286.00,0.87
7285.00,0.87
7284.00,0.87
7283.00,0.87
7282.00,0.87
7281.00,0.87
7280.00,0.87
7279.00,0.87
7278.00,0.87
7277.00,0.87
7276.00,0.87
7275.00,0.86
7274.00,0.86
7273.00,0.86
7272.00,0.86
7271.00,0.86
7270.00,0.86
7269.00,0.86
7268.00,0.86
7267.00,0.86
7266.00,0.85
7265.00,0.85
7264.00,0.85
7263.00,0.85
7262.00,0.85
7261.00,0.85
7260.00,0.85
7259.00,0.85
7258.00,0.85
7257.00,0.85
7256.00,0.85
7255.00,0.84
7254.00,0.84
7253.00,0.84
7252.00,0.84
7251.00,0.84
7250.00,0.84
7249.00,0.84
7248.00,0.84
7247.00,0.84
7246.00,0.84
7245.00,0.83
7244.00,0.83
7243.00,0.83
7242.00,0.83
7241.00,0.83
7240.00,0.82
7239.00,0.82
7238.00,0.82
7237.00,0.82
7236.00,0.82
7235.00,0.81
7234.00,0.81
7233.00,0.81
7232.00,0.81
7231.00,0.81
7230.00,0.81
7229.00,0.80
7228.00,0.80
7227.00,0.80
7226.00,0.80
7225.00,0.80
7224.00,0.80
7223.00,0.79
7222.00,0.79
7221.00,0.79
7220.00,0.79
7219.00,0.79
7218.00,0.79
7217.00,0.79
7216.00,0.78
7215.00,0.78
7214.00,0.78
7213.00,0.78
7212.00,0.78
7211.00,0.78
7210.00,0.78
7209.00,0.78
7208.00,0.77
7207.00,0.77
7206.00,0.77
7205.00,0.77
7204.00,0.77
7203.00,0.77
7202.00,0.76
7201.00,0.76
7200.00,0.76
7199.00,0.76
7198.00,0.76
7197.00,0.76
7196.00,0.75
7195.00,0.75
7194.00,0.75
7193.00,0.75
7192.00,0.75
7191.00,0.74
7190.00,0.74
7189.00,0.74
7188.00,0.74
7187.00,0.74
7186.00,0.74
7185.00,0.73
7184.00,0.73
7183.00,0.73
7182.00,0.73
7181.00,0.73
7180.00,0.72
7179.00,0.72
7178.00,0.72
7177.00,0.72
7176.00,0.72
7175.00,0.71
7174.00,0.71
7173.00,0.71
7172.00,0.71
7171.00,0.71
7170.00,0.70
7169.00,0.70
7168.00,0.70
7167.00,0.70
7166.00,0.70
7165.00,0.69
7164.00,0.69
7163.00,0.69
7162.00,0.69
7161.00,0.69
7160.00,0.68
7159.00,0.68
7158.00,0.68
7157.00,0.68
7156.00,0.68
7155.00,0.68
7154.00,0.67
7153.00,0.67
7152.00,0.67
7151.00,0.67
7150.00,0.67
7149.00,0.67
7148.00,0.66
7147.00,0.66
7146.00,0.66
7145.00,0.66
7144.00,0.66
7143.00,0.66
7142.00,0.66
7141.00,0.65
7140.00,0.65
7139.00,0.65
7138.00,0.65
7137.00,0.65
7136.00,0.65
7135.00,0.65
7134.00,0.65
7133.00,0.65
7132.00,0.64
7131.00,0.64
7130.00,0.64
7129.00,0.64
7128.00,0.64
7127.00,0.64
7126.00,0.64
7125.00,0.64
7124.00,0.64
7123.00,0.63
7122.00,0.63
7121.00,0.63
7120.00,0.63
7119.00,0.63
7118.00,0.62
7117.00,0.62
7116.00,0.62
7115.00,0.62
7114.00,0.62
7113.00,0.61
7112.00,0.61
7111.00,0.61
7110.00,0.61
7109.00,0.61
7108.00,0.60
7107.00,0.60
7106.00,0.60
7105.00,0.60
7104.00,0.60
7103.00,0.60
7102.00,0.59
7101.00,0.59
7100.00,0.59
7099.00,0.59
7098.00,0.59
7097.00,0.58
7096.00,0.58
7095.00,0.58
7094.00,0.58
7093.00,0.58
7092.00,0.58
7091.00,0.58
7090.00,0.57
7089.00,0.57
7088.00,0.57
7087.00,0.57
7086.00,0.57
7085.00,0.57
7084.00,0.57
7083.00,0.57
7082.00,0.57
7081.00,0.57
7080.00,0.57
7079.00,0.56
7078.00,0.56
7077.00,0.56
7076.00,0.56
7075.00,0.56
7074.00,0.56
7073.00,0.56
7072.00,0.56
7071.00,0.56
7070.00,0.56
7069.00,0.56
7068.00,0.55
7067.00,0.55
7066.00,0.55
7065.00,0.55
7064.00,0.55
7063.00,0.55
7062.00,0.55
7061.00,0.55
7060.00,0.55
7059.00,0.55
7058.00,0.55
7057.00,0.55
7056.00,0.55
7055.00,0.54
7054.00,0.54
7053.00,0.54
7052.00,0.54
7051.00,0.54
7050.00,0.54
7049.00,0.54
7048.00,0.54
7047.00,0.54
7046.00,0.54
7045.00,0.53
7044.00,0.53
7043.00,0.53
7042.00,0.53
7041.00,0.53
7040.00,0.53
7039.00,0.53
7038.00,0.53
7037.00,0.53
7036.00,0.53
7035.00,0.52
7034.00,0.52
7033.00,0.52
7032.00,0.52
7031.00,0.52
7030.00,0.52
7029.00,0.52
7028.00,0.52
7027.00,0.52
7026.00,0.52
7025.00,0.52
7024.00,0.52
7023.00,0.52
7022.00,0.52
7021.00,0.52
7020.00,0.52
7019.00,0.52
7018.00,0.52
7017.00,0.52
7016.00,0.52
7015.00,0.51
7014.00,0.51
7013.00,0.51
7012.00,0.51
7011.00,0.51
7010.00,0.51
7009.00,0.51
7008.00,0.51
7007.00,0.51
7006.00,0.51
7005.00,0.51
7004.00,0.51
7003.00,0.51
7002.00,0.51
7001.00,0.51
7000.00,0.50
6999.00,0.50
6998.00,0.50
6997.00,0.50
6996.00,0.50
6995.00,0.50
6994.00,0.50
6993.00,0.50
6992.00,0.50
6991.00,0.50
6990.00,0.50
6989.00,0.50
6988.00,0.50
6987.00,0.50
6986.00,0.50
6985.00,0.50
6984.00,0.50
6983.00,0.50
6982.00,0.50
6981.00,0.50
6980.00,0.50
6979.00,0.50
6978.00,0.50
6977.00,0.50
6976.00,0.50
6975.00,0.50
6974.00,0.50
6973.00,0.50
6972.00,0.50
6971.00,0.50
6970.00,0.50
6969.00,0.50
6968.00,0.49
6967.00,0.49
6966.00,0.49
6965.00,0.49
6964.00,0.49
6963.00,0.49
6962.00,0.49
6961.00,0.49
6960.00,0.49
6959.00,0.49
6958.00,0.49
6957.00,0.49
6956.00,0.49
6955.00,0.49
6954.00,0.49
6953.00,0.49
6952.00,0.49
6951.00,0.49
6950.00,0.49
6949.00,0.49
6948.00,0.49
6947.00,0.49
6946.00,0.49
6945.00,0.49
6944.00,0.49
6943.00,0.48
6942.00,0.48
6941.00,0.48
6940.00,0.48
6939.00,0.48
6938.00,0.48
6937.00,0.48
6936.00,0.48
6935.00,0.48
6934.00,0.48
6933.00,0.48
6932.00,0.48
6931.00,0.48
6930.00,0.48
6929.00,0.48
6928.00,0.48
6927.00,0.48
6926.00,0.48
6925.00,0.48
6924.00,0.48
6923.00,0.48
6922.00,0.48
6921.00,0.48
6920.00,0.48
6919.00,0.48
6918.00,0.48
6917.00,0.48
6916.00,0.48
6915.00,0.48
6914.00,0.48
6913.00,0.48
6912.00,0.48
6911.00,0.48
6910.00,0.48
6909.00,0.48
6908.00,0.48
6907.00,0.48
6906.00,0.48
6905.00,0.48
6904.00,0.48
6903.00,0.48
6902.00,0.48
6901.00,0.48
6900.00,0.48
6899.00,0.48
6898.00,0.48
6897.00,0.48
6896.00,0.48
6895.00,0.48
6894.00,0.48
6893.00,0.48
6892.00,0.48
6891.00,0.48
6890.00,0.48
6889.00,0.48
6888.00,0.48
6887.00,0.48
6886.00,0.48
6885.00,0.48
6884.00,0.48
6883.00,0.48
6882.00,0.48
6881.00,0.48
6880.00,0.48
6879.00,0.48
6878.00,0.48
6877.00,0.48
6876.00,0.48
6875.00,0.48
6874.00,0.48
6873.00,0.48
6872.00,0.48
6871.00,0.48
6870.00,0.48
6869.00,0.48
6868.00,0.48
6867.00,0.48
6866.00,0.48
6865.00,0.48
6864.00,0.48
6863.00,0.48
6862.00,0.47
6861.00,0.47
6860.00,0.47
6859.00,0.47
6858.00,0.47
6857.00,0.47
6856.00,0.47
6855.00,0.47
6854.00,0.47
6853.00,0.47
6852.00,0.47
6851.00,0.47
6850.00,0.47
6849.00,0.47
6848.00,0.47
6847.00,0.47
6846.00,0.47
6845.00,0.47
6844.00,0.47
6843.00,0.47
6842.00,0.47
6841.00,0.47
6840.00,0.47
6839.00,0.47
6838.00,0.47
6837.00,0.47
6836.00,0.47
6835.00,0.48
6834.00,0.48
6833.00,0.48
6832.00,0.48
6831.00,0.48
6830.00,0.48
6829.00,0.48
6828.00,0.48
6827.00,0.48
6826.00,0.48
6825.00,0.48
6824.00,0.48
6823.00,0.48
6822.00,0.48
6821.00,0.48
6820.00,0.48
6819.00,0.48
6818.00,0.49
6817.00,0.49
6816.00,0.49
6815.00,0.49
6814.00,0.49
6813.00,0.49
6812.00,0.49
6811.00,0.49
6810.00,0.49
6809.00,0.49
6808.00,0.49
6807.00,0.49
6806.00,0.49
6805.00,0.49
6804.00,0.49
6803.00,0.49
6802.00,0.49
6801.00,0.49
6800.00,0.49
6799.00,0.49
6798.00,0.49
6797.00,0.49
6796.00,0.49
6795.00,0.49
6794.00,0.49
6793.00,0.49
6792.00,0.49
6791.00,0.49
6790.00,0.49
6789.00,0.49
6788.00,0.49
6787.00,0.50
6786.00,0.50
6785.00,0.50
6784.00,0.50
6783.00,0.50
6782.00,0.50
6781.00,0.50
6780.00,0.50
6779.00,0.50
6778.00,0.50
6777.00,0.50
6776.00,0.50
6775.00,0.50
6774.00,0.50
6773.00,0.50
6772.00,0.50
6771.00,0.50
6770.00,0.50
6769.00,0.50
6768.00,0.50
6767.00,0.50
6766.00,0.50
6765.00,0.50
6764.00,0.50
6763.00,0.50
6762.00,0.50
6761.00,0.51
6760.00,0.51
6759.00,0.51
6758.00,0.51
6757.00,0.51
6756.00,0.51
6755.00,0.51
6754.00,0.51
6753.00,0.51
6752.00,0.51
6751.00,0.51
6750.00,0.51
6749.00,0.51
6748.00,0.51
6747.00,0.51
6746.00,0.51
6745.00,0.52
6744.00,0.52
6743.00,0.52
6742.00,0.52
6741.00,0.52
6740.00,0.52
6739.00,0.52
6738.00,0.52
6737.00,0.52
6736.00,0.52
6735.00,0.52
6734.00,0.52
6733.00,0.52
6732.00,0.52
6731.00,0.52
6730.00,0.52
6729.00,0.52
6728.00,0.52
6727.00,0.52
6726.00,0.52
6725.00,0.52
6724.00,0.52
6723.00,0.52
6722.00,0.52
6721.00,0.53
6720.00,0.53
6719.00,0.53
6718.00,0.53
6717.00,0.53
6716.00,0.53
6715.00,0.53
6714.00,0.53
6713.00,0.53
6712.00,0.53
6711.00,0.53
6710.00,0.54
6709.00,0.54
6708.00,0.54
6707.00,0.54
6706.00,0.54
6705.00,0.54
6704.00,0.54
6703.00,0.54
6702.00,0.54
6701.00,0.54
6700.00,0.54
6699.00,0.54
6698.00,0.54
6697.00,0.54
6696.00,0.54
6695.00,0.54
6694.00,0.54
6693.00,0.54
6692.00,0.54
6691.00,0.54
6690.00,0.54
6689.00,0.54
6688.00,0.54
6687.00,0.54
6686.00,0.54
6685.00,0.54
6684.00,0.54
6683.00,0.54
6682.00,0.55
6681.00,0.55
6680.00,0.55
6679.00,0.55
6678.00,0.55
6677.00,0.55
6676.00,0.55
6675.00,0.55
6674.00,0.55
6673.00,0.55
6672.00,0.55
6671.00,0.56
6670.00,0.56
6669.00,0.56
6668.00,0.56
6667.00,0.56
6666.00,0.56
6665.00,0.56
6664.00,0.56
6663.00,0.56
6662.00,0.57
6661.00,0.57
6660.00,0.57
6659.00,0.57
6658.00,0.57
6657.00,0.57
6656.00,0.57
6655.00,0.57
6654.00,0.57
6653.00,0.57
6652.00,0.57
6651.00,0.57
6650.00,0.57
6649.00,0.57
6648.00,0.57
6647.00,0.57
6646.00,0.57
6645.00,0.57
6644.00,0.57
6643.00,0.57
6642.00,0.57
6641.00,0.57
6640.00,0.57
6639.00,0.57
6638.00,0.57
6637.00,0.58
6636.00,0.58
6635.00,0.58
6634.00,0.58
6633.00,0.58
6632.00,0.58
6631.00,0.58
6630.00,0.58
6629.00,0.58
6628.00,0.58
6627.00,0.59
6626.00,0.59
6625.00,0.59
6624.00,0.59
6623.00,0.59
6622.00,0.59
6621.00,0.59
6620.00,0.59
6619.00,0.59
6618.00,0.60
6617.00,0.60
6616.00,0.60
6615.00,0.60
6614.00,0.60
6613.00,0.60
6612.00,0.60
6611.00,0.60
6610.00,0.60
6609.00,0.60
6608.00,0.60
6607.00,0.60
6606.00,0.60
6605.00,0.61
6604.00,0.61
6603.00,0.61
6602.00,0.61
6601.00,0.61
6600.00,0.61
6599.00,0.61
6598.00,0.61
6597.00,0.61
6596.00,0.61
6595.00,0.61
6594.00,0.61
6593.00,0.61
6592.00,0.61
6591.00,0.61
6590.00,0.61
6589.00,0.61
6588.00,0.61
6587.00,0.61
6586.00,0.61
6585.00,0.61
6584.00,0.61
6583.00,0.61
6582.00,0.61
6581.00,0.61
6580.00,0.61
6579.00,0.61
6578.00,0.61
6577.00,0.62
6576.00,0.62
6575.00,0.62
6574.00,0.62
6573.00,0.62
6572.00,0.62
6571.00,0.62
6570.00,0.62
6569.00,0.62
6568.00,0.62
6567.00,0.63
6566.00,0.63
6565.00,0.63
6564.00,0.63
6563.00,0.63
6562.00,0.63
6561.00,0.63
6560.00,0.63
6559.00,0.63
6558.00,0.63
6557.00,0.63
6556.00,0.63
6555.00,0.63
6554.00,0.63
6553.00,0.64
6552.00,0.64
6551.00,0.64
6550.00,0.64
6549.00,0.64
6548.00,0.64
6547.00,0.64
6546.00,0.64
6545.00,0.64
6544.00,0.64
6543.00,0.64
6542.00,0.64
6541.00,0.64
6540.00,0.64
6539.00,0.64
6538.00,0.64
6537.00,0.64
6536.00,0.64
6535.00,0.64
6534.00,0.64
6533.00,0.64
6532.00,0.65
6531.00,0.65
6530.00,0.65
6529.00,0.65
6528.00,0.65
6527.00,0.65
6526.00,0.65
6525.00,0.65
6524.00,0.65
6523.00,0.65
6522.00,0.65
6521.00,0.65
6520.00,0.65
6519.00,0.65
6518.00,0.65
6517.00,0.65
6516.00,0.65
6515.00,0.65
6514.00,0.65
6513.00,0.65
6512.00,0.65
6511.00,0.65
6510.00,0.65
6509.00,0.65
6508.00,0.65
6507.00,0.65
6506.00,0.65
6505.00,0.65
6504.00,0.65
6503.00,0.65
6502.00,0.66
6501.00,0.66
6500.00,0.66
6499.00,0.66
6498.00,0.66
6497.00,0.66
6496.00,0.66
6495.00,0.66
6494.00,0.66
6493.00,0.66
6492.00,0.66
6491.00,0.66
6490.00,0.66
6489.00,0.66
6488.00,0.66
6487.00,0.66
6486.00,0.66
6485.00,0.66
6484.00,0.67
6483.00,0.67
6482.00,0.67
6481.00,0.67
6480.00,0.67
6479.00,0.67
6478.00,0.67
6477.00,0.67
6476.00,0.67
6475.00,0.67
6474.00,0.67
6473.00,0.67
6472.00,0.67
6471.00,0.67
6470.00,0.67
6469.00,0.67
6468.00,0.67
6467.00,0.67
6466.00,0.67
6465.00,0.67
6464.00,0.68
6463.00,0.68
6462.00,0.68
6461.00,0.68
6460.00,0.68
6459.00,0.68
6458.00,0.68
6457.00,0.68
6456.00,0.68
6455.00,0.68
6454.00,0.68
6453.00,0.68
6452.00,0.68
6451.00,0.68
6450.00,0.68
6449.00,0.68
6448.00,0.68
6447.00,0.68
6446.00,0.68
6445.00,0.68
6444.00,0.68
6443.00,0.68
6442.00,0.68
6441.00,0.68
6440.00,0.68
6439.00,0.68
6438.00,0.68
6437.00,0.68
6436.00,0.68
6435.00,0.68
6434.00,0.68
6433.00,0.68
6432.00,0.68
6431.00,0.68
6430.00,0.69
6429.00,0.69
6428.00,0.69
6427.00,0.69
6426.00,0.69
6425.00,0.69
6424.00,0.69
6423.00,0.69
6422.00,0.69
6421.00,0.69
6420.00,0.69
6419.00,0.69
6418.00,0.69
6417.00,0.69
6416.00,0.69
6415.00,0.69
6414.00,0.69
6413.00,0.69
6412.00,0.69
6411.00,0.69
6410.00,0.69
6409.00,0.69
6408.00,0.69
6407.00,0.69
6406.00,0.69
6405.00,0.69
6404.00,0.69
6403.00,0.69
6402.00,0.69
6401.00,0.69
6400.00,0.69
6399.00,0.69
6398.00,0.69
6397.00,0.70
6396.00,0.70
6395.00,0.70
6394.00,0.70
6393.00,0.70
6392.00,0.70
6391.00,0.70
6390.00,0.70
6389.00,0.70
6388.00,0.70
6387.00,0.70
6386.00,0.70
6385.00,0.70
6384.00,0.70
6383.00,0.70
6382.00,0.70
6381.00,0.70
6380.00,0.70
6379.00,0.71
6378.00,0.71
6377.00,0.71
6376.00,0.71
6375.00,0.71
6374.00,0.71
6373.00,0.71
6372.00,0.71
6371.00,0.71
6370.00,0.71
6369.00,0.71
6368.00,0.71
6367.00,0.71
6366.00,0.71
6365.00,0.71
6364.00,0.72
6363.00,0.72
6362.00,0.72
6361.00,0.72
6360.00,0.72
6359.00,0.72
6358.00,0.72
6357.00,0.72
6356.00,0.72
6355.00,0.72
6354.00,0.72
6353.00,0.72
6352.00,0.72
6351.00,0.72
6350.00,0.72
6349.00,0.72
6348.00,0.72
6347.00,0.72
6346.00,0.72
6345.00,0.72
6344.00,0.72
6343.00,0.72
6342.00,0.72
6341.00,0.72
6340.00,0.72
6339.00,0.72
6338.00,0.72
6337.00,0.73
6336.00,0.73
6335.00,0.73
6334.00,0.73
6333.00,0.73
6332.00,0.73
6331.00,0.73
6330.00,0.73
6329.00,0.73
6328.00,0.73
6327.00,0.73
6326.00,0.73
6325.00,0.73
6324.00,0.73
6323.00,0.73
6322.00,0.73
6321.00,0.73
6320.00,0.74
6319.00,0.74
6318.00,0.74
6317.00,0.74
6316.00,0.74
6315.00,0.74
6314.00,0.74
6313.00,0.74
6312.00,0.74
6311.00,0.74
6310.00,0.74
6309.00,0.74
6308.00,0.75
6307.00,0.75
6306.00,0.75
6305.00,0.75
6304.00,0.75
6303.00,0.75
6302.00,0.75
6301.00,0.75
6300.00,0.75
6299.00,0.75
6298.00,0.75
6297.00,0.75
6296.00,0.75
6295.00,0.75
6294.00,0.75
6293.00,0.75
6292.00,0.75
6291.00,0.75
6290.00,0.75
6289.00,0.76
6288.00,0.76
6287.00,0.76
6286.00,0.76
6285.00,0.76
6284.00,0.76
6283.00,0.76
6282.00,0.76
6281.00,0.76
6280.00,0.76
6279.00,0.76
6278.00,0.76
6277.00,0.76
6276.00,0.76
6275.00,0.76
6274.00,0.76
6273.00,0.76
6272.00,0.76
6271.00,0.76
6270.00,0.76
6269.00,0.76
6268.00,0.76
6267.00,0.76
6266.00,0.76
6265.00,0.76
6264.00,0.77
6263.00,0.77
6262.00,0.77
6261.00,0.77
6260.00,0.77
6259.00,0.77
6258.00,0.77
6257.00,0.77
6256.00,0.77
6255.00,0.77
6254.00,0.78
6253.00,0.78
6252.00,0.78
6251.00,0.78
6250.00,0.78
6249.00,0.78
6248.00,0.78
6247.00,0.78
6246.00,0.78
6245.00,0.78
6244.00,0.78
6243.00,0.79
6242.00,0.79
6241.00,0.79
6240.00,0.79
6239.00,0.79
6238.00,0.79
6237.00,0.79
6236.00,0.79
6235.00,0.79
6234.00,0.79
6233.00,0.79
6232.00,0.79
6231.00,0.79
6230.00,0.79
6229.00,0.79
6228.00,0.79
6227.00,0.79
6226.00,0.80
6225.00,0.80
6224.00,0.80
6223.00,0.80
6222.00,0.80
6221.00,0.80
6220.00,0.80
6219.00,0.80
6218.00,0.80
6217.00,0.80
6216.00,0.80
6215.00,0.80
6214.00,0.80
6213.00,0.81
6212.00,0.81
6211.00,0.81
6210.00,0.81
6209.00,0.81
6208.00,0.81
6207.00,0.81
6206.00,0.81
6205.00,0.81
6204.00,0.81
6203.00,0.81
6202.00,0.81
6201.00,0.81
6200.00,0.81
6199.00,0.81
6198.00,0.81
6197.00,0.82
6196.00,0.82
6195.00,0.82
6194.00,0.82
6193.00,0.82
6192.00,0.82
6191.00,0.82
6190.00,0.82
6189.00,0.82
6188.00,0.82
6187.00,0.82
6186.00,0.82
6185.00,0.82
6184.00,0.82
6183.00,0.83
6182.00,0.83
6181.00,0.83
6180.00,0.83
6179.00,0.83
6178.00,0.83
6177.00,0.83
6176.00,0.83
6175.00,0.83
6174.00,0.83
6173.00,0.83
6172.00,0.83
6171.00,0.84
6170.00,0.84
6169.00,0.84
6168.00,0.84
6167.00,0.84
6166.00,0.84
6165.00,0.84
6164.00,0.84
6163.00,0.84
6162.00,0.84
6161.00,0.84
6160.00,0.84
6159.00,0.84
6158.00,0.84
6157.00,0.84
6156.00,0.85
6155.00,0.85
6154.00,0.85
6153.00,0.85
6152.00,0.85
6151.00,0.85
6150.00,0.85
6149.00,0.85
6148.00,0.85
6147.00,0.85
6146.00,0.85
6145.00,0.85
6144.00,0.85
6143.00,0.85
6142.00,0.85
6141.00,0.85
6140.00,0.86
6139.00,0.86
6138.00,0.86
6137.00,0.86
6136.00,0.86
6135.00,0.86
6134.00,0.86
6133.00,0.86
6132.00,0.86
6131.00,0.86
6130.00,0.86
6129.00,0.87
6128.00,0.87
6127.00,0.87
6126.00,0.87
6125.00,0.87
6124.00,0.87
6123.00,0.87
6122.00,0.87
6121.00,0.87
6120.00,0.87
6119.00,0.87
6118.00,0.87
6117.00,0.87
6116.00,0.87
6115.00,0.88
6114.00,0.88
6113.00,0.88
6112.00,0.88
6111.00,0.88
6110.00,0.88
6109.00,0.88
6108.00,0.88
6107.00,0.88
6106.00,0.88
6105.00,0.88
6104.00,0.89
6103.00,0.89
6102.00,0.89
6101.00,0.89
6100.00,0.89
6099.00,0.89
6098.00,0.89
6097.00,0.89
6096.00,0.89
6095.00,0.89
6094.00,0.89
6093.00,0.89
6092.00,0.89
6091.00,0.89
6090.00,0.89
6089.00,0.89
6088.00,0.89
6087.00,0.89
6086.00,0.89
6085.00,0.89
6084.00,0.89
6083.00,0.89
6082.00,0.89
6081.00,0.90
6080.00,0.90
6079.00,0.90
6078.00,0.90
6077.00,0.90
6076.00,0.90
6075.00,0.90
6074.00,0.90
6073.00,0.90
6072.00,0.90
6071.00,0.90
6070.00,0.90
6069.00,0.90
6068.00,0.90
6067.00,0.90
6066.00,0.90
6065.00,0.90
6064.00,0.90
6063.00,0.90
6062.00,0.90
6061.00,0.90
6060.00,0.90
6059.00,0.91
6058.00,0.91
6057.00,0.91
6056.00,0.91
6055.00,0.91
6054.00,0.91
6053.00,0.91
6052.00,0.91
6051.00,0.91
6050.00,0.91
6049.00,0.91
6048.00,0.91
6047.00,0.92
6046.00,0.92
6045.00,0.92
6044.00,0.92
6043.00,0.92
6042.00,0.92
6041.00,0.92
6040.00,0.92
6039.00,0.92
6038.00,0.92
6037.00,0.92
6036.00,0.92
6035.00,0.92
6034.00,0.92
6033.00,0.92
6032.00,0.92
6031.00,0.92
6030.00,0.92
6029.00,0.92
6028.00,0.92
6027.00,0.92
6026.00,0.92
6025.00,0.92
6024.00,0.92
6023.00,0.92
6022.00,0.92
6021.00,0.92
6020.00,0.92
6019.00,0.92
6018.00,0.92
6017.00,0.92
6016.00,0.92
6015.00,0.92
6014.00,0.92
6013.00,0.92
6012.00,0.92
6011.00,0.92
6010.00,0.92
6009.00,0.92
6008.00,0.92
6007.00,0.92
6006.00,0.92
6005.00,0.92
6004.00,0.92
6003.00,0.92
6002.00,0.92
6001.00,0.92
6000.00,0.92
5999.00,0.92
5998.00,0.92
5997.00,0.92
5996.00,0.92
5995.00,0.92
5994.00,0.92
5993.00,0.92
5992.00,0.92
5991.00,0.92
5990.00,0.92
5989.00,0.91
5988.00,0.91
5987.00,0.91
5986.00,0.91
5985.00,0.91
5984.00,0.91
5983.00,0.91
5982.00,0.90
5981.00,0.90
5980.00,0.90
5979.00,0.90
5978.00,0.90
5977.00,0.90
5976.00,0.89
5975.00,0.89
5974.00,0.89
5973.00,0.89
5972.00,0.88
5971.00,0.88
5970.00,0.88
5969.00,0.88
5968.00,0.87
5967.00,0.87
5966.00,0.87
5965.00,0.86
5964.00,0.86
5963.00,0.86
5962.00,0.85
5961.00,0.85
5960.00,0.84
5959.00,0.84
5958.00,0.84
5957.00,0.83
5956.00,0.83
5955.00,0.82
5954.00,0.82
5953.00,0.82
5952.00,0.81
5951.00,0.81
5950.00,0.81
5949.00,0.80
5948.00,0.80
5947.00,0.80
5946.00,0.80
5945.00,0.79
5944.00,0.79
5943.00,0.79
5942.00,0.79
5941.00,0.79
5940.00,0.79
5939.00,0.79
5938.00,0.79
5937.00,0.79
5936.00,0.78
5935.00,0.78
5934.00,0.78
5933.00,0.78
5932.00,0.78
5931.00,0.78
5930.00,0.78
5929.00,0.78
5928.00,0.78
5927.00,0.78
5926.00,0.78
5925.00,0.78
5924.00,0.77
5923.00,0.77
5922.00,0.77
5921.00,0.77
5920.00,0.77
5919.00,0.77
5918.00,0.77
5917.00,0.77
5916.00,0.76
5915.00,0.76
5914.00,0.76
5913.00,0.76
5912.00,0.76
5911.00,0.76
5910.00,0.76
5909.00,0.76
5908.00,0.76
5907.00,0.76
5906.00,0.76
5905.00,0.75
5904.00,0.75
5903.00,0.75
5902.00,0.75
5901.00,0.75
5900.00,0.75
5899.00,0.75
5898.00,0.75
5897.00,0.76
5896.00,0.76
5895.00,0.76
5894.00,0.76
5893.00,0.76
5892.00,0.76
5891.00,0.76
5890.00,0.76
5889.00,0.77
5888.00,0.77
5887.00,0.77
5886.00,0.77
5885.00,0.77
5884.00,0.78
5883.00,0.78
5882.00,0.78
5881.00,0.78
5880.00,0.78
5879.00,0.78
5878.00,0.79
5877.00,0.79
5876.00,0.79
5875.00,0.79
5874.00,0.79
5873.00,0.79
5872.00,0.79
5871.00,0.80
5870.00,0.80
5869.00,0.80
5868.00,0.80
5867.00,0.80
5866.00,0.80
5865.00,0.80
5864.00,0.80
5863.00,0.80
5862.00,0.80
5861.00,0.81
5860.00,0.81
5859.00,0.81
5858.00,0.81
5857.00,0.81
5856.00,0.81
5855.00,0.81
5854.00,0.81
5853.00,0.81
5852.00,0.81
5851.00,0.81
5850.00,0.81
5849.00,0.81
5848.00,0.81
5847.00,0.81
5846.00,0.81
5845.00,0.81
5844.00,0.81
5843.00,0.81
5842.00,0.81
5841.00,0.81
5840.00,0.81
5839.00,0.81
5838.00,0.81
5837.00,0.81
5836.00,0.81
5835.00,0.81
5834.00,0.81
5833.00,0.81
5832.00,0.81
5831.00,0.81
5830.00,0.81
5829.00,0.81
5828.00,0.81
5827.00,0.81
5826.00,0.81
5825.00,0.81
5824.00,0.81
5823.00,0.81
5822.00,0.81
5821.00,0.81
5820.00,0.81
5819.00,0.81
5818.00,0.81
5817.00,0.81
5816.00,0.81
5815.00,0.81
5814.00,0.81
5813.00,0.81
5812.00,0.81
5811.00,0.81
5810.00,0.81
5809.00,0.81
5808.00,0.81
5807.00,0.81
5806.00,0.81
5805.00,0.81
5804.00,0.81
5803.00,0.81
5802.00,0.81
5801.00,0.81
5800.00,0.81
5799.00,0.81
5798.00,0.81
5797.00,0.81
5796.00,0.81
5795.00,0.80
5794.00,0.80
5793.00,0.80
5792.00,0.80
5791.00,0.80
5790.00,0.80
5789.00,0.80
5788.00,0.80
5787.00,0.79
5786.00,0.79
5785.00,0.79
5784.00,0.79
5783.00,0.79
5782.00,0.79
5781.00,0.79
5780.00,0.78
5779.00,0.78
5778.00,0.78
5777.00,0.78
5776.00,0.78
5775.00,0.78
5774.00,0.78
5773.00,0.78
5772.00,0.78
5771.00,0.78
5770.00,0.78
5769.00,0.78
5768.00,0.78
5767.00,0.78
5766.00,0.78
5765.00,0.78
5764.00,0.78
5763.00,0.78
5762.00,0.79
5761.00,0.79
5760.00,0.79
5759.00,0.79
5758.00,0.79
5757.00,0.79
5756.00,0.80
5755.00,0.80
5754.00,0.80
5753.00,0.80
5752.00,0.80
5751.00,0.80
5750.00,0.81
5749.00,0.81
5748.00,0.81
5747.00,0.81
5746.00,0.81
5745.00,0.81
5744.00,0.82
5743.00,0.82
5742.00,0.82
5741.00,0.82
5740.00,0.82
5739.00,0.82
5738.00,0.83
5737.00,0.83
5736.00,0.83
5735.00,0.83
5734.00,0.83
5733.00,0.83
5732.00,0.83
5731.00,0.83
5730.00,0.83
5729.00,0.84
5728.00,0.84
5727.00,0.84
5726.00,0.84
5725.00,0.84
5724.00,0.84
5723.00,0.84
5722.00,0.84
5721.00,0.84
5720.00,0.84
5719.00,0.84
5718.00,0.84
5717.00,0.84
5716.00,0.84
5715.00,0.84
5714.00,0.84
5713.00,0.84
5712.00,0.84
5711.00,0.84
5710.00,0.84
5709.00,0.84
5708.00,0.84
5707.00,0.84
5706.00,0.84
5705.00,0.83
5704.00,0.83
5703.00,0.83
5702.00,0.83
5701.00,0.83
5700.00,0.83
5699.00,0.83
5698.00,0.83
5697.00,0.83
5696.00,0.83
5695.00,0.82
5694.00,0.82
5693.00,0.82
5692.00,0.82
5691.00,0.82
5690.00,0.82
5689.00,0.82
5688.00,0.82
5687.00,0.82
5686.00,0.82
5685.00,0.82
5684.00,0.82
5683.00,0.82
5682.00,0.82
5681.00,0.82
5680.00,0.82
5679.00,0.81
5678.00,0.81
5677.00,0.81
5676.00,0.81
5675.00,0.81
5674.00,0.81
5673.00,0.81
5672.00,0.81
5671.00,0.82
5670.00,0.82
5669.00,0.82
5668.00,0.82
5667.00,0.82
5666.00,0.82
5665.00,0.82
5664.00,0.82
5663.00,0.82
5662.00,0.82
5661.00,0.82
5660.00,0.82
5659.00,0.82
5658.00,0.82
5657.00,0.82
5656.00,0.82
5655.00,0.83
5654.00,0.83
5653.00,0.83
5652.00,0.83
5651.00,0.83
5650.00,0.83
5649.00,0.83
5648.00,0.83
5647.00,0.83
5646.00,0.83
5645.00,0.83
5644.00,0.84
5643.00,0.84
5642.00,0.84
5641.00,0.84
5640.00,0.84
5639.00,0.84
5638.00,0.84
5637.00,0.84
5636.00,0.84
5635.00,0.84
5634.00,0.84
5633.00,0.85
5632.00,0.85
5631.00,0.85
5630.00,0.85
5629.00,0.85
5628.00,0.85
5627.00,0.85
5626.00,0.85
5625.00,0.85
5624.00,0.85
5623.00,0.85
5622.00,0.85
5621.00,0.85
5620.00,0.85
5619.00,0.85
5618.00,0.85
5617.00,0.85
5616.00,0.86
5615.00,0.86
5614.00,0.86
5613.00,0.86
5612.00,0.86
5611.00,0.86
5610.00,0.86
5609.00,0.86
5608.00,0.86
5607.00,0.86
5606.00,0.87
5605.00,0.87
5604.00,0.87
5603.00,0.87
5602.00,0.87
5601.00,0.87
5600.00,0.87
5599.00,0.87
5598.00,0.87
5597.00,0.88
5596.00,0.88
5595.00,0.88
5594.00,0.88
5593.00,0.88
5592.00,0.88
5591.00,0.88
5590.00,0.88
5589.00,0.88
5588.00,0.88
5587.00,0.88
5586.00,0.88
5585.00,0.88
5584.00,0.88
5583.00,0.88
5582.00,0.88
5581.00,0.88
5580.00,0.88
5579.00,0.88
5578.00,0.88
5577.00,0.89
5576.00,0.89
5575.00,0.89
5574.00,0.89
5573.00,0.89
5572.00,0.89
5571.00,0.89
5570.00,0.89
5569.00,0.89
5568.00,0.89
5567.00,0.89
5566.00,0.89
5565.00,0.89
5564.00,0.89
5563.00,0.89
5562.00,0.89
5561.00,0.90
5560.00,0.90
5559.00,0.90
5558.00,0.90
5557.00,0.90
5556.00,0.90
5555.00,0.90
5554.00,0.90
5553.00,0.90
5552.00,0.90
5551.00,0.90
5550.00,0.90
5549.00,0.90
5548.00,0.91
5547.00,0.91
5546.00,0.91
5545.00,0.91
5544.00,0.91
5543.00,0.91
5542.00,0.91
5541.00,0.91
5540.00,0.91
5539.00,0.91
5538.00,0.91
5537.00,0.91
5536.00,0.91
5535.00,0.91
5534.00,0.91
5533.00,0.91
5532.00,0.91
5531.00,0.92
5530.00,0.92
5529.00,0.92
5528.00,0.92
5527.00,0.92
5526.00,0.92
5525.00,0.92
5524.00,0.92
5523.00,0.92
5522.00,0.92
5521.00,0.92
5520.00,0.92
5519.00,0.92
5518.00,0.92
5517.00,0.92
5516.00,0.92
5515.00,0.92
5514.00,0.92
5513.00,0.92
5512.00,0.92
5511.00,0.92
5510.00,0.92
5509.00,0.92
5508.00,0.92
5507.00,0.92
5506.00,0.92
5505.00,0.92
5504.00,0.92
5503.00,0.92
5502.00,0.92
5501.00,0.92
5500.00,0.92
5499.00,0.92
5498.00,0.92
5497.00,0.92
5496.00,0.92
5495.00,0.92
5494.00,0.93
5493.00,0.93
5492.00,0.93
5491.00,0.93
5490.00,0.93
5489.00,0.93
5488.00,0.93
5487.00,0.93
5486.00,0.93
5485.00,0.93
5484.00,0.93
5483.00,0.93
5482.00,0.93
5481.00,0.93
5480.00,0.93
5479.00,0.93
5478.00,0.93
5477.00,0.93
5476.00,0.93
5475.00,0.93
5474.00,0.93
5473.00,0.93
5472.00,0.94
5471.00,0.94
5470.00,0.94
5469.00,0.94
5468.00,0.94
5467.00,0.94
5466.00,0.94
5465.00,0.94
5464.00,0.94
5463.00,0.94
5462.00,0.94
5461.00,0.94
5460.00,0.94
5459.00,0.94
5458.00,0.94
5457.00,0.94
5456.00,0.94
5455.00,0.94
5454.00,0.94
5453.00,0.94
5452.00,0.94
5451.00,0.94
5450.00,0.94
5449.00,0.94
5448.00,0.94
5447.00,0.94
5446.00,0.94
5445.00,0.94
5444.00,0.94
5443.00,0.94
5442.00,0.94
5441.00,0.94
5440.00,0.94
5439.00,0.94
5438.00,0.94
5437.00,0.94
5436.00,0.94
5435.00,0.94
5434.00,0.94
5433.00,0.94
5432.00,0.94
5431.00,0.94
5430.00,0.94
5429.00,0.94
5428.00,0.95
5427.00,0.95
5426.00,0.95
5425.00,0.95
5424.00,0.95
5423.00,0.95
5422.00,0.95
5421.00,0.95
5420.00,0.95
5419.00,0.95
5418.00,0.95
5417.00,0.95
5416.00,0.94
5415.00,0.94
5414.00,0.94
5413.00,0.94
5412.00,0.94
5411.00,0.94
5410.00,0.94
5409.00,0.94
5408.00,0.94
5407.00,0.94
5406.00,0.94
5405.00,0.94
5404.00,0.94
5403.00,0.94
5402.00,0.94
5401.00,0.94
5400.00,0.94
5399.00,0.94
5398.00,0.94
5397.00,0.94
5396.00,0.94
5395.00,0.94
5394.00,0.94
5393.00,0.94
5392.00,0.94
5391.00,0.94
5390.00,0.93
5389.00,0.93
5388.00,0.93
5387.00,0.93
5386.00,0.93
5385.00,0.93
5384.00,0.93
5383.00,0.93
5382.00,0.92
5381.00,0.92
5380.00,0.92
5379.00,0.92
5378.00,0.92
5377.00,0.92
5376.00,0.91
5375.00,0.91
5374.00,0.91
5373.00,0.91
5372.00,0.91
5371.00,0.91
5370.00,0.90
5369.00,0.90
5368.00,0.90
5367.00,0.90
5366.00,0.90
5365.00,0.89
5364.00,0.89
5363.00,0.89
5362.00,0.88
5361.00,0.88
5360.00,0.88
5359.00,0.87
5358.00,0.87
5357.00,0.87
5356.00,0.86
5355.00,0.86
5354.00,0.85
5353.00,0.85
5352.00,0.84
5351.00,0.84
5350.00,0.83
5349.00,0.83
5348.00,0.82
5347.00,0.82
5346.00,0.81
5345.00,0.81
5344.00,0.80
5343.00,0.80
5342.00,0.79
5341.00,0.78
5340.00,0.78
5339.00,0.77
5338.00,0.77
5337.00,0.76
5336.00,0.75
5335.00,0.75
5334.00,0.74
5333.00,0.74
5332.00,0.73
5331.00,0.72
5330.00,0.72
5329.00,0.71
5328.00,0.71
5327.00,0.70
5326.00,0.69
5325.00,0.69
5324.00,0.68
5323.00,0.67
5322.00,0.67
5321.00,0.66
5320.00,0.65
5319.00,0.65
5318.00,0.64
5317.00,0.63
5316.00,0.63
5315.00,0.62
5314.00,0.62
5313.00,0.61
5312.00,0.60
5311.00,0.60
5310.00,0.59
5309.00,0.59
5308.00,0.58
5307.00,0.57
5306.00,0.57
5305.00,0.56
5304.00,0.56
5303.00,0.55
5302.00,0.55
5301.00,0.54
5300.00,0.54
5299.00,0.54
5298.00,0.53
5297.00,0.53
5296.00,0.52
5295.00,0.52
5294.00,0.52
5293.00,0.51
5292.00,0.51
5291.00,0.51
5290.00,0.51
5289.00,0.50
5288.00,0.50
5287.00,0.50
5286.00,0.50
5285.00,0.49
5284.00,0.49
5283.00,0.49
5282.00,0.49
5281.00,0.48
5280.00,0.48
5279.00,0.48
5278.00,0.48
5277.00,0.48
5276.00,0.48
5275.00,0.48
5274.00,0.47
5273.00,0.47
5272.00,0.47
5271.00,0.47
5270.00,0.47
5269.00,0.47
5268.00,0.47
5267.00,0.47
5266.00,0.47
5265.00,0.47
5264.00,0.47
5263.00,0.47
5262.00,0.46
5261.00,0.46
5260.00,0.46
5259.00,0.46
5258.00,0.46
5257.00,0.46
5256.00,0.46
5255.00,0.46
5254.00,0.46
5253.00,0.46
5252.00,0.46
5251.00,0.46
5250.00,0.46
5249.00,0.46
5248.00,0.46
5247.00,0.46
5246.00,0.46
5245.00,0.46
5244.00,0.45
5243.00,0.45
5242.00,0.45
5241.00,0.45
5240.00,0.45
5239.00,0.45
5238.00,0.46
5237.00,0.46
5236.00,0.46
5235.00,0.46
5234.00,0.46
5233.00,0.46
5232.00,0.46
5231.00,0.46
5230.00,0.46
5229.00,0.46
5228.00,0.46
5227.00,0.46
5226.00,0.46
5225.00,0.45
5224.00,0.45
5223.00,0.45
5222.00,0.45
5221.00,0.45
5220.00,0.45
5219.00,0.45
5218.00,0.45
5217.00,0.45
5216.00,0.45
5215.00,0.45
5214.00,0.45
5213.00,0.45
5212.00,0.45
5211.00,0.45
5210.00,0.45
5209.00,0.45
5208.00,0.45
5207.00,0.45
5206.00,0.45
5205.00,0.45
5204.00,0.45
5203.00,0.46
5202.00,0.46
5201.00,0.46
5200.00,0.46
5199.00,0.46
5198.00,0.46
5197.00,0.46
5196.00,0.46
5195.00,0.46
5194.00,0.46
5193.00,0.46
5192.00,0.46
5191.00,0.46
5190.00,0.46
5189.00,0.46
5188.00,0.46
5187.00,0.46
5186.00,0.46
5185.00,0.46
5184.00,0.46
5183.00,0.46
5182.00,0.46
5181.00,0.46
5180.00,0.46
5179.00,0.46
5178.00,0.47
5177.00,0.47
5176.00,0.47
5175.00,0.47
5174.00,0.47
5173.00,0.47
5172.00,0.47
5171.00,0.47
5170.00,0.47
5169.00,0.47
5168.00,0.47
5167.00,0.47
5166.00,0.47
5165.00,0.47
5164.00,0.47
5163.00,0.47
5162.00,0.47
5161.00,0.47
5160.00,0.47
5159.00,0.47
5158.00,0.47
5157.00,0.47
5156.00,0.47
5155.00,0.47
5154.00,0.47
5153.00,0.47
5152.00,0.47
5151.00,0.47
5150.00,0.47
5149.00,0.47
5148.00,0.47
5147.00,0.47
5146.00,0.47
5145.00,0.47
5144.00,0.47
5143.00,0.47
5142.00,0.47
5141.00,0.47
5140.00,0.47
5139.00,0.47
5138.00,0.47
5137.00,0.47
5136.00,0.47
5135.00,0.47
5134.00,0.48
5133.00,0.48
5132.00,0.48
5131.00,0.48
5130.00,0.48
5129.00,0.48
5128.00,0.48
5127.00,0.48
5126.00,0.48
5125.00,0.48
5124.00,0.48
5123.00,0.48
5122.00,0.48
5121.00,0.48
5120.00,0.48
5119.00,0.48
5118.00,0.48
5117.00,0.48
5116.00,0.48
5115.00,0.48
5114.00,0.48
5113.00,0.48
5112.00,0.48
5111.00,0.48
5110.00,0.49
5109.00,0.49
5108.00,0.49
5107.00,0.49
5106.00,0.49
5105.00,0.49
5104.00,0.49
5103.00,0.49
5102.00,0.49
5101.00,0.49
5100.00,0.49
5099.00,0.49
5098.00,0.49
5097.00,0.49
5096.00,0.49
5095.00,0.49
5094.00,0.49
5093.00,0.49
5092.00,0.49
5091.00,0.49
5090.00,0.49
5089.00,0.49
5088.00,0.49
5087.00,0.50
5086.00,0.50
5085.00,0.50
5084.00,0.50
5083.00,0.50
5082.00,0.50
5081.00,0.50
5080.00,0.50
5079.00,0.50
5078.00,0.50
5077.00,0.50
5076.00,0.50
5075.00,0.50
5074.00,0.50
5073.00,0.51
5072.00,0.51
5071.00,0.51
5070.00,0.51
5069.00,0.51
5068.00,0.51
5067.00,0.51
5066.00,0.51
5065.00,0.51
5064.00,0.51
5063.00,0.51
5062.00,0.51
5061.00,0.51
5060.00,0.51
5059.00,0.51
5058.00,0.51
5057.00,0.51
5056.00,0.51
5055.00,0.51
5054.00,0.51
5053.00,0.51
5052.00,0.51
5051.00,0.51
5050.00,0.51
5049.00,0.52
5048.00,0.52
5047.00,0.52
5046.00,0.52
5045.00,0.52
5044.00,0.52
5043.00,0.52
5042.00,0.52
5041.00,0.52
5040.00,0.52
5039.00,0.52
5038.00,0.52
5037.00,0.52
5036.00,0.52
5035.00,0.52
5034.00,0.53
5033.00,0.53
5032.00,0.53
5031.00,0.53
5030.00,0.53
5029.00,0.53
5028.00,0.53
5027.00,0.53
5026.00,0.53
5025.00,0.53
5024.00,0.53
5023.00,0.54
5022.00,0.54
5021.00,0.54
5020.00,0.54
5019.00,0.54
5018.00,0.54
5017.00,0.54
5016.00,0.54
5015.00,0.54
5014.00,0.54
5013.00,0.54
5012.00,0.54
5011.00,0.54
5010.00,0.55
5009.00,0.55
5008.00,0.55
5007.00,0.55
5006.00,0.55
5005.00,0.55
5004.00,0.55
5003.00,0.55
5002.00,0.55
5001.00,0.55
5000.00,0.55
4999.00,0.55
4998.00,0.55
4997.00,0.56
4996.00,0.56
4995.00,0.56
4994.00,0.56
4993.00,0.56
4992.00,0.56
4991.00,0.56
4990.00,0.56
4989.00,0.56
4988.00,0.56
4987.00,0.56
4986.00,0.56
4985.00,0.56
4984.00,0.57
4983.00,0.57
4982.00,0.57
4981.00,0.57
4980.00,0.57
4979.00,0.57
4978.00,0.57
4977.00,0.57
4976.00,0.57
4975.00,0.57
4974.00,0.57
4973.00,0.57
4972.00,0.57
4971.00,0.57
4970.00,0.57
4969.00,0.57
4968.00,0.57
4967.00,0.58
4966.00,0.58
4965.00,0.58
4964.00,0.58
4963.00,0.58
4962.00,0.58
4961.00,0.58
4960.00,0.58
4959.00,0.58
4958.00,0.58
4957.00,0.58
4956.00,0.59
4955.00,0.59
4954.00,0.59
4953.00,0.59
4952.00,0.59
4951.00,0.59
4950.00,0.59
4949.00,0.59
4948.00,0.59
4947.00,0.59
4946.00,0.59
4945.00,0.59
4944.00,0.59
4943.00,0.59
4942.00,0.60
4941.00,0.60
4940.00,0.60
4939.00,0.60
4938.00,0.60
4937.00,0.60
4936.00,0.60
4935.00,0.60
4934.00,0.60
4933.00,0.60
4932.00,0.60
4931.00,0.60
4930.00,0.60
4929.00,0.61
4928.00,0.61
4927.00,0.61
4926.00,0.61
4925.00,0.61
4924.00,0.61
4923.00,0.61
4922.00,0.61
4921.00,0.61
4920.00,0.61
4919.00,0.61
4918.00,0.61
4917.00,0.61
4916.00,0.61
4915.00,0.61
4914.00,0.62
4913.00,0.62
4912.00,0.62
4911.00,0.62
4910.00,0.62
4909.00,0.62
4908.00,0.62
4907.00,0.62
4906.00,0.62
4905.00,0.62
4904.00,0.62
4903.00,0.62
4902.00,0.62
4901.00,0.62
4900.00,0.62
4899.00,0.62
4898.00,0.62
4897.00,0.62
4896.00,0.62
4895.00,0.63
4894.00,0.63
4893.00,0.63
4892.00,0.63
4891.00,0.63
4890.00,0.63
4889.00,0.63
4888.00,0.63
4887.00,0.63
4886.00,0.63
4885.00,0.63
4884.00,0.63
4883.00,0.63
4882.00,0.63
4881.00,0.63
4880.00,0.63
4879.00,0.63
4878.00,0.64
4877.00,0.64
4876.00,0.64
4875.00,0.64
4874.00,0.64
4873.00,0.64
4872.00,0.64
4871.00,0.64
4870.00,0.64
4869.00,0.64
4868.00,0.64
4867.00,0.64
4866.00,0.64
4865.00,0.64
4864.00,0.64
4863.00,0.64
4862.00,0.64
4861.00,0.64
4860.00,0.64
4859.00,0.64
4858.00,0.64
4857.00,0.64
4856.00,0.64
4855.00,0.64
4854.00,0.64
4853.00,0.64
4852.00,0.65
4851.00,0.65
4850.00,0.65
4849.00,0.65
4848.00,0.65
4847.00,0.65
4846.00,0.65
4845.00,0.65
4844.00,0.65
4843.00,0.65
4842.00,0.65
4841.00,0.65
4840.00,0.65
4839.00,0.65
4838.00,0.65
4837.00,0.65
4836.00,0.66
4835.00,0.66
4834.00,0.66
4833.00,0.66
4832.00,0.66
4831.00,0.66
4830.00,0.66
4829.00,0.66
4828.00,0.66
4827.00,0.67
4826.00,0.67
4825.00,0.67
4824.00,0.67
4823.00,0.67
4822.00,0.67
4821.00,0.67
4820.00,0.67
4819.00,0.67
4818.00,0.67
4817.00,0.67
4816.00,0.67
4815.00,0.67
4814.00,0.67
4813.00,0.67
4812.00,0.68
4811.00,0.68
4810.00,0.68
4809.00,0.68
4808.00,0.68
4807.00,0.68
4806.00,0.68
4805.00,0.68
4804.00,0.68
4803.00,0.68
4802.00,0.68
4801.00,0.68
4800.00,0.68
4799.00,0.68
4798.00,0.68
4797.00,0.69
4796.00,0.69
4795.00,0.69
4794.00,0.69
4793.00,0.69
4792.00,0.69
4791.00,0.69
4790.00,0.69
4789.00,0.70
4788.00,0.70
4787.00,0.70
4786.00,0.70
4785.00,0.70
4784.00,0.70
4783.00,0.70
4782.00,0.70
4781.00,0.70
4780.00,0.70
4779.00,0.70
4778.00,0.71
4777.00,0.71
4776.00,0.71
4775.00,0.71
4774.00,0.71
4773.00,0.71
4772.00,0.71
4771.00,0.71
4770.00,0.71
4769.00,0.71
4768.00,0.71
4767.00,0.71
4766.00,0.72
4765.00,0.72
4764.00,0.72
4763.00,0.72
4762.00,0.72
4761.00,0.72
4760.00,0.72
4759.00,0.73
4758.00,0.73
4757.00,0.73
4756.00,0.73
4755.00,0.73
4754.00,0.73
4753.00,0.73
4752.00,0.73
4751.00,0.74
4750.00,0.74
4749.00,0.74
4748.00,0.74
4747.00,0.74
4746.00,0.74
4745.00,0.74
4744.00,0.74
4743.00,0.74
4742.00,0.74
4741.00,0.74
4740.00,0.74
4739.00,0.74
4738.00,0.74
4737.00,0.75
4736.00,0.75
4735.00,0.75
4734.00,0.75
4733.00,0.75
4732.00,0.75
4731.00,0.75
4730.00,0.76
4729.00,0.76
4728.00,0.76
4727.00,0.76
4726.00,0.76
4725.00,0.76
4724.00,0.77
4723.00,0.77
4722.00,0.77
4721.00,0.77
4720.00,0.77
4719.00,0.77
4718.00,0.77
4717.00,0.78
4716.00,0.78
4715.00,0.78
4714.00,0.78
4713.00,0.78
4712.00,0.78
4711.00,0.78
4710.00,0.78
4709.00,0.78
4708.00,0.78
4707.00,0.79
4706.00,0.79
4705.00,0.79
4704.00,0.79
4703.00,0.79
4702.00,0.79
4701.00,0.79
4700.00,0.79
4699.00,0.80
4698.00,0.80
4697.00,0.80
4696.00,0.80
4695.00,0.80
4694.00,0.80
4693.00,0.80
4692.00,0.80
4691.00,0.81
4690.00,0.81
4689.00,0.81
4688.00,0.81
4687.00,0.81
4686.00,0.81
4685.00,0.81
4684.00,0.81
4683.00,0.81
4682.00,0.82
4681.00,0.82
4680.00,0.82
4679.00,0.82
4678.00,0.82
4677.00,0.82
4676.00,0.82
4675.00,0.82
4674.00,0.82
4673.00,0.82
4672.00,0.82
4671.00,0.83
4670.00,0.83
4669.00,0.83
4668.00,0.83
4667.00,0.83
4666.00,0.83
4665.00,0.83
4664.00,0.84
4663.00,0.84
4662.00,0.84
4661.00,0.84
4660.00,0.84
4659.00,0.84
4658.00,0.84
4657.00,0.84
4656.00,0.85
4655.00,0.85
4654.00,0.85
4653.00,0.85
4652.00,0.85
4651.00,0.85
4650.00,0.85
4649.00,0.85
4648.00,0.86
4647.00,0.86
4646.00,0.86
4645.00,0.86
4644.00,0.86
4643.00,0.86
4642.00,0.86
4641.00,0.86
4640.00,0.86
4639.00,0.86
4638.00,0.86
4637.00,0.86
4636.00,0.86
4635.00,0.87
4634.00,0.87
4633.00,0.87
4632.00,0.87
4631.00,0.87
4630.00,0.87
4629.00,0.87
4628.00,0.87
4627.00,0.87
4626.00,0.87
4625.00,0.88
4624.00,0.88
4623.00,0.88
4622.00,0.88
4621.00,0.88
4620.00,0.88
4619.00,0.88
4618.00,0.88
4617.00,0.88
4616.00,0.88
4615.00,0.88
4614.00,0.88
4613.00,0.88
4612.00,0.89
4611.00,0.89
4610.00,0.89
4609.00,0.89
4608.00,0.89
4607.00,0.89
4606.00,0.89
4605.00,0.89
4604.00,0.89
4603.00,0.89
4602.00,0.89
4601.00,0.89
4600.00,0.89
4599.00,0.89
4598.00,0.89
4597.00,0.90
4596.00,0.90
4595.00,0.90
4594.00,0.90
4593.00,0.90
4592.00,0.90
4591.00,0.90
4590.00,0.90
4589.00,0.90
4588.00,0.90
4587.00,0.90
4586.00,0.90
4585.00,0.91
4584.00,0.91
4583.00,0.91
4582.00,0.91
4581.00,0.91
4580.00,0.91
4579.00,0.91
4578.00,0.91
4577.00,0.91
4576.00,0.91
4575.00,0.91
4574.00,0.91
4573.00,0.92
4572.00,0.92
4571.00,0.92
4570.00,0.92
4569.00,0.92
4568.00,0.92
4567.00,0.92
4566.00,0.92
4565.00,0.92
4564.00,0.92
4563.00,0.92
4562.00,0.92
4561.00,0.92
4560.00,0.92
4559.00,0.93
4558.00,0.93
4557.00,0.93
4556.00,0.93
4555.00,0.93
4554.00,0.93
4553.00,0.93
4552.00,0.93
4551.00,0.93
4550.00,0.93
4549.00,0.93
4548.00,0.93
4547.00,0.93
4546.00,0.93
4545.00,0.93
4544.00,0.93
4543.00,0.93
4542.00,0.94
4541.00,0.94
4540.00,0.94
4539.00,0.94
4538.00,0.94
4537.00,0.94
4536.00,0.94
4535.00,0.94
4534.00,0.94
4533.00,0.94
4532.00,0.94
4531.00,0.94
4530.00,0.94
4529.00,0.94
4528.00,0.94
4527.00,0.94
4526.00,0.94
4525.00,0.94
4524.00,0.94
4523.00,0.94
4522.00,0.94
4521.00,0.94
4520.00,0.94
4519.00,0.94
4518.00,0.94
4517.00,0.94
4516.00,0.95
4515.00,0.95
4514.00,0.95
4513.00,0.95
4512.00,0.95
4511.00,0.95
4510.00,0.95
4509.00,0.95
4508.00,0.95
4507.00,0.95
4506.00,0.95
4505.00,0.95
4504.00,0.95
4503.00,0.95
4502.00,0.95
4501.00,0.95
4500.00,0.95
4499.00,0.95
4498.00,0.95
4497.00,0.95
4496.00,0.95
4495.00,0.94
4494.00,0.94
4493.00,0.94
4492.00,0.94
4491.00,0.94
4490.00,0.94
4489.00,0.94
4488.00,0.94
4487.00,0.94
4486.00,0.94
4485.00,0.93
4484.00,0.93
4483.00,0.93
4482.00,0.93
4481.00,0.93
4480.00,0.93
4479.00,0.93
4478.00,0.92
4477.00,0.92
4476.00,0.92
4475.00,0.92
4474.00,0.92
4473.00,0.92
4472.00,0.91
4471.00,0.91
4470.00,0.91
4469.00,0.91
4468.00,0.91
4467.00,0.90
4466.00,0.90
4465.00,0.90
4464.00,0.90
4463.00,0.90
4462.00,0.89
4461.00,0.89
4460.00,0.89
4459.00,0.89
4458.00,0.88
4457.00,0.88
4456.00,0.88
4455.00,0.88
4454.00,0.87
4453.00,0.87
4452.00,0.87
4451.00,0.87
4450.00,0.86
4449.00,0.86
4448.00,0.86
4447.00,0.85
4446.00,0.85
4445.00,0.84
4444.00,0.84
4443.00,0.84
4442.00,0.83
4441.00,0.83
4440.00,0.82
4439.00,0.82
4438.00,0.81
4437.00,0.81
4436.00,0.80
4435.00,0.80
4434.00,0.80
4433.00,0.79
4432.00,0.79
4431.00,0.78
4430.00,0.78
4429.00,0.77
4428.00,0.77
4427.00,0.77
4426.00,0.76
4425.00,0.76
4424.00,0.76
4423.00,0.75
4422.00,0.75
4421.00,0.75
4420.00,0.75
4419.00,0.75
4418.00,0.75
4417.00,0.74
4416.00,0.74
4415.00,0.74
4414.00,0.74
4413.00,0.74
4412.00,0.74
4411.00,0.74
4410.00,0.74
4409.00,0.74
4408.00,0.74
4407.00,0.74
4406.00,0.74
4405.00,0.75
4404.00,0.75
4403.00,0.75
4402.00,0.75
4401.00,0.75
4400.00,0.75
4399.00,0.75
4398.00,0.75
4397.00,0.75
4396.00,0.76
4395.00,0.76
4394.00,0.76
4393.00,0.76
4392.00,0.76
4391.00,0.76
4390.00,0.77
4389.00,0.77
4388.00,0.77
4387.00,0.77
4386.00,0.77
4385.00,0.77
4384.00,0.77
4383.00,0.78
4382.00,0.78
4381.00,0.78
4380.00,0.78
4379.00,0.78
4378.00,0.78
4377.00,0.78
4376.00,0.78
4375.00,0.78
4374.00,0.78
4373.00,0.79
4372.00,0.79
4371.00,0.79
4370.00,0.79
4369.00,0.79
4368.00,0.79
4367.00,0.79
4366.00,0.79
4365.00,0.79
4364.00,0.79
4363.00,0.79
4362.00,0.79
4361.00,0.79
4360.00,0.79
4359.00,0.79
4358.00,0.79
4357.00,0.79
4356.00,0.78
4355.00,0.78
4354.00,0.78
4353.00,0.78
4352.00,0.78
4351.00,0.78
4350.00,0.77
4349.00,0.77
4348.00,0.77
4347.00,0.77
4346.00,0.77
4345.00,0.77
4344.00,0.77
4343.00,0.77
4342.00,0.77
4341.00,0.77
4340.00,0.77
4339.00,0.77
4338.00,0.77
4337.00,0.77
4336.00,0.77
4335.00,0.77
4334.00,0.77
4333.00,0.77
4332.00,0.78
4331.00,0.78
4330.00,0.78
4329.00,0.78
4328.00,0.78
4327.00,0.78
4326.00,0.79
4325.00,0.79
4324.00,0.79
4323.00,0.79
4322.00,0.79
4321.00,0.80
4320.00,0.80
4319.00,0.80
4318.00,0.80
4317.00,0.81
4316.00,0.81
4315.00,0.81
4314.00,0.81
4313.00,0.82
4312.00,0.82
4311.00,0.82
4310.00,0.82
4309.00,0.83
4308.00,0.83
4307.00,0.83
4306.00,0.83
4305.00,0.83
4304.00,0.83
4303.00,0.83
4302.00,0.84
4301.00,0.84
4300.00,0.84
4299.00,0.84
4298.00,0.84
4297.00,0.84
4296.00,0.84
4295.00,0.84
4294.00,0.85
4293.00,0.85
4292.00,0.85
4291.00,0.85
4290.00,0.85
4289.00,0.85
4288.00,0.85
4287.00,0.85
4286.00,0.85
4285.00,0.85
4284.00,0.85
4283.00,0.85
4282.00,0.85
4281.00,0.85
4280.00,0.85
4279.00,0.85
4278.00,0.85
4277.00,0.85
4276.00,0.85
4275.00,0.85
4274.00,0.85
4273.00,0.85
4272.00,0.85
4271.00,0.85
4270.00,0.85
4269.00,0.85
4268.00,0.85
4267.00,0.85
4266.00,0.85
4265.00,0.85
4264.00,0.85
4263.00,0.85
4262.00,0.84
4261.00,0.84
4260.00,0.84
4259.00,0.84
4258.00,0.84
4257.00,0.84
4256.00,0.84
4255.00,0.84
4254.00,0.85
4253.00,0.85
4252.00,0.85
4251.00,0.85
4250.00,0.85
4249.00,0.85
4248.00,0.85
4247.00,0.86
4246.00,0.86
4245.00,0.86
4244.00,0.86
4243.00,0.86
4242.00,0.86
4241.00,0.86
4240.00,0.86
4239.00,0.87
4238.00,0.87
4237.00,0.87
4236.00,0.87
4235.00,0.87
4234.00,0.87
4233.00,0.87
4232.00,0.87
4231.00,0.88
4230.00,0.88
4229.00,0.88
4228.00,0.88
4227.00,0.88
4226.00,0.88
4225.00,0.88
4224.00,0.89
4223.00,0.89
4222.00,0.89
4221.00,0.89
4220.00,0.89
4219.00,0.89
4218.00,0.89
4217.00,0.89
4216.00,0.89
4215.00,0.89
4214.00,0.89
4213.00,0.89
4212.00,0.89
4211.00,0.89
4210.00,0.89
4209.00,0.89
4208.00,0.89
4207.00,0.89
4206.00,0.89
4205.00,0.89
4204.00,0.89
4203.00,0.89
4202.00,0.90
4201.00,0.90
4200.00,0.90
4199.00,0.90
4198.00,0.90
4197.00,0.90
4196.00,0.90
4195.00,0.90
4194.00,0.90
4193.00,0.90
4192.00,0.90
4191.00,0.90
4190.00,0.90
4189.00,0.90
4188.00,0.90
4187.00,0.90
4186.00,0.90
4185.00,0.90
4184.00,0.90
4183.00,0.90
4182.00,0.89
4181.00,0.89
4180.00,0.89
4179.00,0.89
4178.00,0.89
4177.00,0.89
4176.00,0.89
4175.00,0.89
4174.00,0.89
4173.00,0.89
4172.00,0.89
4171.00,0.90
4170.00,0.90
4169.00,0.90
4168.00,0.90
4167.00,0.90
4166.00,0.90
4165.00,0.90
4164.00,0.90
4163.00,0.90
4162.00,0.90
4161.00,0.90
4160.00,0.90
4159.00,0.90
4158.00,0.89
4157.00,0.89
4156.00,0.89
4155.00,0.89
4154.00,0.89
4153.00,0.89
4152.00,0.89
4151.00,0.89
4150.00,0.89
4149.00,0.89
4148.00,0.89
4147.00,0.89
4146.00,0.89
4145.00,0.89
4144.00,0.89
4143.00,0.89
4142.00,0.89
4141.00,0.89
4140.00,0.89
4139.00,0.90
4138.00,0.90
4137.00,0.90
4136.00,0.90
4135.00,0.90
4134.00,0.90
4133.00,0.90
4132.00,0.90
4131.00,0.90
4130.00,0.90
4129.00,0.90
4128.00,0.90
4127.00,0.90
4126.00,0.90
4125.00,0.90
4124.00,0.90
4123.00,0.90
4122.00,0.90
4121.00,0.90
4120.00,0.90
4119.00,0.90
4118.00,0.90
4117.00,0.90
4116.00,0.90
4115.00,0.90
4114.00,0.90
4113.00,0.90
4112.00,0.90
4111.00,0.90
4110.00,0.90
4109.00,0.90
4108.00,0.90
4107.00,0.90
4106.00,0.90
4105.00,0.90
4104.00,0.90
4103.00,0.90
4102.00,0.90
4101.00,0.90
4100.00,0.90
4099.00,0.90
4098.00,0.90
4097.00,0.90
4096.00,0.91
4095.00,0.91
4094.00,0.91
4093.00,0.91
4092.00,0.91
4091.00,0.91
4090.00,0.91
4089.00,0.91
4088.00,0.91
4087.00,0.91
4086.00,0.91
4085.00,0.91
4084.00,0.91
4083.00,0.91
4082.00,0.91
4081.00,0.91
4080.00,0.91
4079.00,0.91
4078.00,0.91
4077.00,0.91
4076.00,0.91
4075.00,0.91
4074.00,0.91
4073.00,0.91
4072.00,0.92
4071.00,0.92
4070.00,0.92
4069.00,0.92
4068.00,0.92
4067.00,0.92
4066.00,0.92
4065.00,0.92
4064.00,0.92
4063.00,0.92
4062.00,0.92
4061.00,0.92
4060.00,0.92
4059.00,0.92
4058.00,0.92
4057.00,0.92
4056.00,0.92
4055.00,0.92
4054.00,0.92
4053.00,0.92
4052.00,0.92
4051.00,0.92
4050.00,0.92
4049.00,0.92
4048.00,0.92
4047.00,0.92
4046.00,0.92
4045.00,0.92
4044.00,0.92
4043.00,0.92
4042.00,0.92
4041.00,0.92
4040.00,0.92
4039.00,0.92
4038.00,0.92
4037.00,0.92
4036.00,0.92
4035.00,0.92
4034.00,0.92
4033.00,0.92
4032.00,0.92
4031.00,0.92
4030.00,0.92
4029.00,0.92
4028.00,0.92
4027.00,0.92
4026.00,0.92
4025.00,0.92
4024.00,0.92
4023.00,0.92
4022.00,0.92
4021.00,0.92
4020.00,0.92
4019.00,0.93
4018.00,0.93
4017.00,0.93
4016.00,0.93
4015.00,0.93
4014.00,0.94
4013.00,0.94
4012.00,0.94
4011.00,0.94
4010.00,0.94
4009.00,0.94
4008.00,0.94
4007.00,0.94
4006.00,0.94
4005.00,0.95
4004.00,0.95
4003.00,0.95
4002.00,0.95
4001.00,0.95
4000.00,0.95
